Time	ax	ay	az	wx	wy	wz	AngleX	AngleY	AngleZ	T	hx	hy	hz 
01829.261	0.0547	-0.0144	0.9971	0.0000	0.0000	0.0000	-0.3351	-5.3119	177.7368	37.4600	43	0	0 
01829.261	0.0547	-0.0144	0.9971	0.0000	0.0000	0.0000	-0.3351	-5.3119	177.7368	37.4600	43	0	0 
01829.267	0.0547	-0.0144	0.9971	0.0000	0.0000	0.0000	-0.3351	-5.3119	177.7368	37.5000	43	0	0 
01829.277	0.0547	-0.0144	0.9971	0.0000	0.0000	0.0000	-0.3351	-5.3119	177.7368	37.5000	43	0	0 
01829.277	0.0547	-0.0144	0.9971	0.0000	0.0000	0.0000	-0.3351	-5.3119	177.7368	37.4500	43	0	0 
01829.283	0.0547	-0.0144	0.9971	0.0000	0.0000	0.0000	-0.3351	-5.3119	177.7368	37.4500	43	0	0 
01829.290	0.0547	-0.0144	0.9971	0.0000	0.0000	0.0000	-0.3351	-5.3119	177.7368	37.4400	43	0	0 
01829.290	0.0544	-0.0137	0.9971	0.0000	0.0000	0.0000	-0.3351	-5.3119	177.7368	37.4400	43	0	0 
01829.297	0.0544	-0.0137	0.9971	0.0000	0.0000	0.0000	-0.3351	-5.3119	177.7368	37.4600	44	0	0 
01829.307	0.0544	-0.0137	0.9971	0.0000	0.0000	0.0000	-0.3351	-5.3119	177.7368	37.4600	43	0	0 
01829.307	0.0544	-0.0137	0.9971	0.0000	0.0000	0.0000	-0.3351	-5.3119	177.7368	37.4800	43	0	0 
01829.314	0.0544	-0.0137	0.9971	0.0000	0.0000	0.0000	-0.3351	-5.3119	177.7368	37.4800	43	0	0 
01829.317	0.0544	-0.0137	0.9971	0.0000	0.0000	0.0000	-0.3351	-5.3119	177.7368	37.4500	43	0	0 
01829.327	0.0544	-0.0137	0.9971	0.0000	0.0000	0.0000	-0.3351	-5.3119	177.7368	37.4500	43	0	0 
01829.327	0.0544	-0.0137	0.9971	0.0000	0.0000	0.0000	-0.3351	-5.3119	177.7368	37.4800	43	0	0 
01829.331	0.0544	-0.0154	0.9971	0.0000	0.0000	0.0000	-0.3351	-5.3119	177.7368	37.4800	43	0	0 
01829.341	0.0544	-0.0154	0.9971	0.0000	0.0000	0.0000	-0.3351	-5.3119	177.7368	37.4800	43	0	0 
01829.341	0.0544	-0.0154	0.9971	0.0000	0.0000	0.0000	-0.3351	-5.3119	177.7368	37.5000	42	0	0 
01829.346	0.0544	-0.0154	0.9971	0.0000	0.0000	0.0000	-0.3351	-5.3119	177.7368	37.5000	42	0	0 
01829.360	0.0544	-0.0154	0.9971	0.0000	0.0000	0.0000	-0.3351	-5.3119	177.7368	37.4800	43	0	0 
01829.360	0.0544	-0.0154	0.9971	0.0000	0.0000	0.0000	-0.3351	-5.3119	177.7368	37.4800	43	0	0 
01829.362	0.0544	-0.0154	0.9971	0.0000	0.0000	0.0000	-0.3351	-5.3119	177.7368	37.4800	44	0	0 
01829.375	0.0544	-0.0154	0.9971	0.0000	0.0000	0.0000	-0.3351	-5.3119	177.7368	37.4800	44	0	0 
01829.375	0.0544	-0.0146	0.9976	0.0000	0.0000	0.0000	-0.3351	-5.3119	177.7368	37.4200	43	0	0 
01829.378	0.0544	-0.0146	0.9976	0.0000	0.0000	0.0000	-0.3351	-5.3119	177.7368	37.4200	43	0	0 
01829.385	0.0544	-0.0146	0.9976	0.0000	0.0000	0.0000	-0.3351	-5.3119	177.7368	37.5100	43	0	0 
01829.385	0.0544	-0.0146	0.9976	0.0000	0.0000	0.0000	-0.3351	-5.3119	177.7368	37.5100	43	0	0 
01829.389	0.0544	-0.0146	0.9976	0.0000	0.0000	0.0000	-0.3351	-5.3119	177.7368	37.4800	42	0	0 
01829.422	0.0544	-0.0146	0.9976	0.0000	0.0000	0.0000	-0.3351	-5.3119	177.7368	37.4800	41	0	0 
01829.424	0.0544	-0.0146	0.9976	0.0000	0.0000	0.0000	-0.3351	-5.3119	177.7368	37.4700	41	0	0 
01829.424	0.0544	-0.0146	0.9976	0.0000	0.0000	0.0000	-0.3351	-5.3119	177.7368	37.4700	41	0	0 
01829.424	0.0544	-0.0144	0.9978	0.0000	0.0000	0.0000	-0.3351	-5.3119	177.7368	37.4300	41	0	0 
01829.424	0.0544	-0.0144	0.9978	0.0000	0.0000	0.0000	-0.3351	-5.3119	177.7368	37.4300	40	0	0 
01829.424	0.0544	-0.0144	0.9978	0.0000	0.0000	0.0000	-0.3351	-5.3119	177.7368	37.4300	41	0	0 
01829.430	0.0544	-0.0144	0.9978	0.0000	0.0000	0.0000	-0.3351	-5.3119	177.7368	37.4200	41	0	0 
01829.433	0.0544	-0.0144	0.9978	0.0000	0.0000	0.0000	-0.3351	-5.3119	177.7368	37.4200	40	0	0 
01829.433	0.0544	-0.0144	0.9978	0.0000	0.0000	0.0000	-0.3351	-5.3119	177.7368	37.4700	40	0	0 
01829.443	0.0544	-0.0144	0.9978	0.0000	0.0000	0.0000	-0.3351	-5.3119	177.7368	37.4700	41	0	0 
01829.451	0.0544	-0.0144	0.9978	0.0000	0.0000	0.0000	-0.3351	-5.3119	177.7368	37.4900	42	0	0 
01829.451	0.0544	-0.0151	0.9978	0.0000	0.0000	0.0000	-0.3351	-5.3119	177.7368	37.4900	42	0	0 
01829.458	0.0544	-0.0151	0.9978	0.0000	0.0000	0.0000	-0.3351	-5.3119	177.7368	37.4500	42	0	0 
01829.465	0.0544	-0.0151	0.9978	0.0000	0.0000	0.0000	-0.3351	-5.3119	177.7368	37.4500	41	0	0 
01829.465	0.0544	-0.0151	0.9978	0.0000	0.0000	0.0000	-0.3351	-5.3119	177.7368	37.5100	40	0	0 
01829.467	0.0544	-0.0151	0.9978	0.0000	0.0000	0.0000	-0.3351	-5.3119	177.7368	37.5100	39	0	0 
01829.483	0.0544	-0.0151	0.9978	0.0000	0.0000	0.0000	-0.3351	-5.3119	177.7368	37.4300	39	0	0 
01829.487	0.0544	-0.0151	0.9978	0.0000	0.0000	0.0000	-0.3351	-5.3119	177.7368	37.4300	38	0	0 
01829.487	0.0544	-0.0151	0.9978	0.0000	0.0000	0.0000	-0.3351	-5.3119	177.7368	37.4700	38	0	0 
01829.493	0.0544	-0.0146	0.9978	0.0000	0.0000	0.0000	-0.3351	-5.3119	177.7368	37.4700	38	0	0 
01829.500	0.0544	-0.0146	0.9978	0.0000	0.0000	0.0000	-0.3351	-5.3119	177.7368	37.5000	39	0	0 
01829.500	0.0544	-0.0146	0.9978	0.0000	0.0000	0.0000	-0.3351	-5.3119	177.7368	37.5000	39	0	0 
01829.507	0.0544	-0.0146	0.9978	0.0000	0.0000	0.0000	-0.3351	-5.3119	177.7368	37.5000	40	0	0 
01829.515	0.0544	-0.0146	0.9978	0.0000	0.0000	0.0000	-0.3351	-5.3119	177.7368	37.4900	40	0	0 
01829.515	0.0544	-0.0146	0.9978	0.0000	0.0000	0.0000	-0.3351	-5.3119	177.7368	37.4900	39	0	0 
01829.522	0.0544	-0.0146	0.9978	0.0000	0.0000	0.0000	-0.3351	-5.3119	177.7368	37.4800	39	0	0 
01829.531	0.0544	-0.0146	0.9978	0.0000	0.0000	0.0000	-0.3351	-5.3119	177.7368	37.4800	38	0	0 
01829.532	0.0544	-0.0144	0.9978	0.0000	0.0000	0.0000	-0.3351	-5.3119	177.7368	37.4300	37	0	0 
01829.534	0.0544	-0.0144	0.9978	0.0000	0.0000	0.0000	-0.3351	-5.3119	177.7368	37.4300	37	0	0 
01829.548	0.0544	-0.0144	0.9978	0.0000	0.0000	0.0000	-0.3351	-5.3119	177.7368	37.4600	37	0	0 
01829.548	0.0544	-0.0144	0.9978	0.0000	0.0000	0.0000	-0.3351	-5.3119	177.7368	37.4600	37	0	0 
01829.550	0.0544	-0.0144	0.9978	0.0000	0.0000	0.0000	-0.3351	-5.3119	177.7368	37.4600	37	0	0 
01829.560	0.0544	-0.0144	0.9978	0.0000	0.0000	0.0000	-0.3351	-5.3119	177.7368	37.4600	38	0	0 
01829.564	0.0544	-0.0144	0.9978	0.0000	0.0000	0.0000	-0.3351	-5.3119	177.7368	37.4800	39	0	0 
01829.564	0.0544	-0.0144	0.9978	0.0000	0.0000	0.0000	-0.3351	-5.3119	177.7368	37.4800	38	0	0 
01829.574	0.0542	-0.0151	0.9978	0.0000	0.0000	0.0000	-0.3351	-5.3119	177.7368	37.4600	38	0	0 
01829.582	0.0542	-0.0151	0.9978	0.0000	0.0000	0.0000	-0.3351	-5.3119	177.7368	37.4600	38	0	0 
01829.582	0.0542	-0.0151	0.9978	0.0000	0.0000	0.0000	-0.3351	-5.3119	177.7368	37.4700	38	0	0 
01829.587	0.0542	-0.0151	0.9978	0.0000	0.0000	0.0000	-0.3351	-5.3119	177.7368	37.4700	39	0	0 
01829.598	0.0542	-0.0151	0.9978	0.0000	0.0000	0.0000	-0.3351	-5.3119	177.7368	37.4700	40	0	0 
01829.598	0.0542	-0.0151	0.9978	0.0000	0.0000	0.0000	-0.3351	-5.3119	177.7368	37.4600	41	0	0 
01829.602	0.0542	-0.0151	0.9978	0.0000	0.0000	0.0000	-0.3351	-5.3119	177.7368	37.4600	41	0	0 
01829.613	0.0542	-0.0151	0.9978	0.0000	0.0000	0.0000	-0.3351	-5.3119	177.7368	37.4300	41	0	0 
01829.613	0.0544	-0.0146	0.9980	0.0000	0.0000	0.0000	-0.3351	-5.3119	177.7368	37.4300	41	0	0 
01829.617	0.0544	-0.0146	0.9980	0.0000	0.0000	0.0000	-0.3351	-5.3119	177.7368	37.4700	40	0	0 
01829.649	0.0544	-0.0146	0.9980	0.0000	0.0000	0.0000	-0.3351	-5.3119	177.7368	37.4700	39	0	0 
01829.649	0.0544	-0.0146	0.9980	0.0000	0.0000	0.0000	-0.3351	-5.3119	177.7368	37.4400	40	0	0 
01829.651	0.0544	-0.0146	0.9980	0.0000	0.0000	0.0000	-0.3351	-5.3119	177.7368	37.4400	40	0	0 
01829.651	0.0544	-0.0146	0.9980	0.0000	0.0000	0.0000	-0.3351	-5.3119	177.7368	37.4100	40	0	0 
01829.651	0.0544	-0.0146	0.9980	0.0000	0.0000	0.0000	-0.3351	-5.3119	177.7368	37.4100	41	0	0 
01829.651	0.0544	-0.0146	0.9980	0.0000	0.0000	0.0000	-0.3351	-5.3119	177.7368	37.4500	40	0	0 
01829.654	0.0544	-0.0142	0.9980	0.0000	0.0000	0.0000	-0.3351	-5.3119	177.7368	37.4500	40	0	0 
01829.662	0.0544	-0.0142	0.9980	0.0000	0.0000	0.0000	-0.3351	-5.3119	177.7368	37.5000	40	0	0 
01829.662	0.0544	-0.0142	0.9980	0.0000	0.0000	0.0000	-0.3351	-5.3119	177.7368	37.5000	40	0	0 
01829.665	0.0544	-0.0142	0.9980	0.0000	0.0000	0.0000	-0.3351	-5.3119	177.7368	37.5000	40	0	0 
01829.678	0.0544	-0.0142	0.9980	0.0000	0.0000	0.0000	-0.3351	-5.3119	177.7368	37.4800	40	0	0 
01829.678	0.0544	-0.0142	0.9980	0.0000	0.0000	0.0000	-0.3351	-5.3119	177.7368	37.4800	40	0	0 
01829.683	0.0544	-0.0142	0.9980	0.0000	0.0000	0.0000	-0.3351	-5.3119	177.7368	37.4800	41	0	0 
01829.693	0.0544	-0.0142	0.9980	0.0000	0.0000	0.0000	-0.3351	-5.3119	177.7368	37.4800	41	0	0 
01829.693	0.0547	-0.0149	0.9978	0.0000	0.0000	0.0000	-0.3351	-5.3119	177.7368	37.4700	41	0	0 
01829.697	0.0547	-0.0149	0.9978	0.0000	0.0000	0.0000	-0.3351	-5.3119	177.7368	37.4700	42	0	0 
01829.706	0.0547	-0.0149	0.9978	0.0000	0.0000	0.0000	-0.3351	-5.3119	177.7368	37.5000	42	0	0 
01829.706	0.0547	-0.0149	0.9978	0.0000	0.0000	0.0000	-0.3351	-5.3119	177.7368	37.5000	43	0	0 
01829.709	0.0547	-0.0149	0.9978	0.0000	0.0000	0.0000	-0.3351	-5.3119	177.7368	37.4500	42	0	0 
01829.721	0.0547	-0.0149	0.9978	0.0000	0.0000	0.0000	-0.3351	-5.3119	177.7368	37.4500	41	0	0 
01829.721	0.0547	-0.0149	0.9978	0.0000	0.0000	0.0000	-0.3351	-5.3119	177.7368	37.5100	41	0	0 
01829.723	0.0547	-0.0149	0.9978	0.0000	0.0000	0.0000	-0.3351	-5.3119	177.7368	37.5100	41	0	0 
01829.739	0.0547	-0.0144	0.9973	0.0000	0.0000	0.0000	-0.3351	-5.3119	177.7368	37.4600	41	0	0 
01829.749	0.0547	-0.0144	0.9973	0.0000	0.0000	0.0000	-0.3351	-5.3119	177.7368	37.4600	41	0	0 
01829.749	0.0547	-0.0144	0.9973	0.0000	0.0000	0.0000	-0.3351	-5.3119	177.7368	37.4500	42	0	0 
01829.752	0.0547	-0.0144	0.9973	0.0000	0.0000	0.0000	-0.3351	-5.3119	177.7368	37.4500	42	0	0 
01829.754	0.0547	-0.0144	0.9973	0.0000	0.0000	0.0000	-0.3351	-5.3119	177.7368	37.4500	43	0	0 
01829.754	0.0547	-0.0144	0.9973	0.0000	0.0000	0.0000	-0.3296	-5.3119	177.7368	37.4600	43	0	0 
01829.761	0.0547	-0.0144	0.9973	0.0000	0.0000	0.0000	-0.3296	-5.3119	177.7368	37.4600	43	0	0 
01829.772	0.0547	-0.0144	0.9973	0.0000	0.0000	0.0000	-0.3296	-5.3119	177.7368	37.4100	42	0	0 
01829.772	0.0549	-0.0139	0.9968	0.0000	0.0000	0.0000	-0.3296	-5.3119	177.7368	37.4100	42	0	0 
01829.780	0.0549	-0.0139	0.9968	0.0000	0.0000	0.0000	-0.3296	-5.3174	177.7368	37.4400	42	0	0 
01829.786	0.0549	-0.0139	0.9968	0.0000	0.0000	0.0000	-0.3296	-5.3174	177.7368	37.4400	43	0	0 
01829.789	0.0549	-0.0139	0.9968	0.0000	0.0000	0.0000	-0.3296	-5.3174	177.7368	37.4900	44	0	0 
01829.789	0.0549	-0.0139	0.9968	0.0000	0.0000	0.0000	-0.3296	-5.3174	177.7368	37.4900	43	0	0 
01829.825	0.0549	-0.0139	0.9968	0.0000	0.0000	0.0000	-0.3296	-5.3174	177.7368	37.4400	42	0	0 
01829.829	0.0549	-0.0139	0.9968	0.0000	0.0000	0.0000	-0.3296	-5.3174	177.7368	37.4400	43	0	0 
01829.829	0.0549	-0.0139	0.9968	0.0000	0.0000	0.0000	-0.3296	-5.3174	177.7368	37.4500	44	0	0 
01829.832	0.0547	-0.0149	0.9968	0.0000	0.0000	0.0000	-0.3296	-5.3174	177.7368	37.4500	43	0	0 
01829.835	0.0547	-0.0149	0.9968	0.0000	0.0000	0.0000	-0.3296	-5.3174	177.7368	37.5000	43	0	0 
01829.835	0.0547	-0.0149	0.9968	0.0000	0.0000	0.0000	-0.3296	-5.3174	177.7368	37.5000	42	0	0 
01829.837	0.0547	-0.0149	0.9968	0.0000	0.0000	0.0000	-0.3296	-5.3174	177.7368	37.5200	41	0	0 
01829.840	0.0547	-0.0149	0.9968	0.0000	0.0000	0.0000	-0.3296	-5.3174	177.7368	37.5200	41	0	0 
01829.840	0.0547	-0.0149	0.9968	0.0000	0.0000	0.0000	-0.3296	-5.3174	177.7368	37.5200	41	0	0 
01829.842	0.0547	-0.0149	0.9968	0.0000	0.0000	0.0000	-0.3296	-5.3174	177.7368	37.4800	40	0	0 
01829.851	0.0547	-0.0149	0.9968	0.0000	0.0000	0.0000	-0.3296	-5.3174	177.7368	37.4800	39	0	0 
01829.851	0.0549	-0.0146	0.9966	0.0000	0.0000	0.0000	-0.3296	-5.3174	177.7368	37.4800	40	0	0 
01829.858	0.0549	-0.0146	0.9966	0.0000	0.0000	0.0000	-0.3296	-5.3174	177.7368	37.4800	40	0	0 
01829.866	0.0549	-0.0146	0.9966	0.0000	0.0000	0.0000	-0.3296	-5.3174	177.7368	37.4600	41	0	0 
01829.866	0.0549	-0.0146	0.9966	0.0000	0.0000	0.0000	-0.3296	-5.3174	177.7368	37.4600	42	0	0 
01829.869	0.0549	-0.0146	0.9966	0.0000	0.0000	0.0000	-0.3296	-5.3174	177.7368	37.5000	42	0	0 
01829.880	0.0549	-0.0146	0.9966	0.0000	0.0000	0.0000	-0.3296	-5.3174	177.7368	37.5000	42	0	0 
01829.886	0.0549	-0.0146	0.9966	0.0000	0.0000	0.0000	-0.3296	-5.3174	177.7368	37.4500	42	0	0 
01829.886	0.0549	-0.0146	0.9966	0.0000	0.0000	0.0000	-0.3296	-5.3174	177.7368	37.4500	42	0	0 
01829.894	0.0547	-0.0146	0.9971	0.0000	0.0000	0.0000	-0.3296	-5.3174	177.7368	37.4400	43	0	0 
01829.900	0.0547	-0.0146	0.9971	0.0000	0.0000	0.0000	-0.3296	-5.3174	177.7368	37.4400	44	0	0 
01829.900	0.0547	-0.0146	0.9971	0.0000	0.0000	0.0000	-0.3296	-5.3174	177.7368	37.5200	44	0	0 
01829.906	0.0547	-0.0146	0.9971	0.0000	0.0000	0.0000	-0.3296	-5.3174	177.7368	37.5200	45	0	0 
01829.917	0.0547	-0.0146	0.9971	0.0000	0.0000	0.0000	-0.3296	-5.3174	177.7368	37.4300	45	0	0 
01829.917	0.0547	-0.0146	0.9971	0.0000	0.0000	0.0000	-0.3296	-5.3174	177.7368	37.4300	45	0	0 
01829.924	0.0547	-0.0146	0.9971	0.0000	0.0000	0.0000	-0.3296	-5.3174	177.7368	37.4300	46	0	0 
01829.928	0.0547	-0.0146	0.9971	0.0000	0.0000	0.0000	-0.3296	-5.3174	177.7368	37.4500	46	0	0 
01829.938	0.0549	-0.0149	0.9971	0.0000	0.0000	0.0000	-0.3296	-5.3174	177.7368	37.4500	46	0	0 
01829.938	0.0549	-0.0149	0.9971	0.0000	0.0000	0.0000	-0.3296	-5.3174	177.7368	37.4600	45	0	0 
01829.944	0.0549	-0.0149	0.9971	0.0000	0.0000	0.0000	-0.3296	-5.3174	177.7368	37.4600	45	0	0 
01829.955	0.0549	-0.0149	0.9971	0.0000	0.0000	0.0000	-0.3296	-5.3174	177.7368	37.4700	44	0	0 
01829.955	0.0549	-0.0149	0.9971	0.0000	0.0000	0.0000	-0.3296	-5.3174	177.7368	37.4700	44	0	0 
01829.959	0.0549	-0.0149	0.9971	0.0000	0.0000	0.0000	-0.3296	-5.3174	177.7368	37.4100	45	0	0 
01829.965	0.0549	-0.0149	0.9971	0.0000	0.0000	0.0000	-0.3296	-5.3174	177.7368	37.4100	45	0	0 
01829.965	0.0549	-0.0149	0.9971	0.0000	0.0000	0.0000	-0.3296	-5.3174	177.7368	37.4700	45	0	0 
01829.973	0.0547	-0.0149	0.9973	0.0000	0.0000	0.0000	-0.3296	-5.3174	177.7368	37.4700	45	0	0 
01829.981	0.0547	-0.0149	0.9973	0.0000	0.0000	0.0000	-0.3296	-5.3174	177.7368	37.5000	46	0	0 
01829.981	0.0547	-0.0149	0.9973	0.0000	0.0000	0.0000	-0.3296	-5.3174	177.7368	37.5000	46	0	0 
01829.988	0.0547	-0.0149	0.9973	0.0000	0.0000	0.0000	-0.3296	-5.3174	177.7368	37.4400	45	0	0 
01829.996	0.0547	-0.0149	0.9973	0.0000	0.0000	0.0000	-0.3296	-5.3174	177.7368	37.4400	44	0	0 
01829.996	0.0547	-0.0149	0.9973	0.0000	0.0000	0.0000	-0.3296	-5.3174	177.7368	37.4300	44	0	0 
01830.000	0.0547	-0.0149	0.9973	0.0000	0.0000	0.0000	-0.3296	-5.3174	177.7368	37.4300	45	0	0 
01830.010	0.0547	-0.0149	0.9973	0.0000	0.0000	0.0000	-0.3296	-5.3174	177.7368	37.4300	44	0	0 
01830.010	0.0552	-0.0144	0.9973	0.0000	0.0000	0.0000	-0.3296	-5.3174	177.7368	37.4600	44	0	0 
01830.017	0.0552	-0.0144	0.9973	0.0000	0.0000	0.0000	-0.3296	-5.3174	177.7368	37.4600	45	0	0 
01830.027	0.0552	-0.0144	0.9973	0.0000	0.0000	0.0000	-0.3296	-5.3174	177.7368	37.5300	45	0	0 
01830.050	0.0552	-0.0144	0.9973	0.0000	0.0000	0.0000	-0.3296	-5.3174	177.7368	37.5300	45	0	0 
01830.050	0.0552	-0.0144	0.9973	0.0000	0.0000	0.0000	-0.3296	-5.3174	177.7368	37.4600	45	0	0 
01830.055	0.0552	-0.0144	0.9973	0.0000	0.0000	0.0000	-0.3296	-5.3174	177.7368	37.4600	45	0	0 
01830.058	0.0552	-0.0144	0.9973	0.0000	0.0000	0.0000	-0.3296	-5.3174	177.7368	37.4900	45	0	0 
01830.058	0.0552	-0.0144	0.9973	0.0000	0.0000	0.0000	-0.3296	-5.3174	177.7368	37.4900	44	0	0 
01830.060	0.0552	-0.0151	0.9973	0.0000	0.0000	0.0000	-0.3296	-5.3174	177.7368	37.4400	43	0	0 
01830.063	0.0552	-0.0151	0.9973	0.0000	0.0000	0.0000	-0.3296	-5.3174	177.7368	37.4400	44	0	0 
01830.063	0.0552	-0.0151	0.9973	0.0000	0.0000	0.0000	-0.3296	-5.3174	177.7368	37.4400	45	0	0 
01830.065	0.0552	-0.0151	0.9973	0.0000	0.0000	0.0000	-0.3296	-5.3174	177.7368	37.4400	44	0	0 
01830.077	0.0552	-0.0151	0.9973	0.0000	0.0000	0.0000	-0.3296	-5.3174	177.7368	37.4200	43	0	0 
01830.077	0.0552	-0.0151	0.9973	0.0000	0.0000	0.0000	-0.3296	-5.3174	177.7368	37.4200	42	0	0 
01830.081	0.0552	-0.0151	0.9973	0.0000	0.0000	0.0000	-0.3296	-5.3174	177.7368	37.4200	42	0	0 
01830.092	0.0552	-0.0151	0.9973	0.0000	0.0000	0.0000	-0.3296	-5.3174	177.7368	37.4200	41	0	0 
01830.098	0.0557	-0.0149	0.9971	0.0000	0.0000	0.0000	-0.3296	-5.3174	177.7368	37.4200	41	0	0 
01830.098	0.0557	-0.0149	0.9971	0.0000	0.0000	0.0000	-0.3296	-5.3174	177.7368	37.4400	40	0	0 
01830.104	0.0557	-0.0149	0.9971	0.0000	0.0000	0.0000	-0.3296	-5.3229	177.7368	37.4400	39	0	0 
01830.112	0.0557	-0.0149	0.9971	0.0000	0.0000	0.0000	-0.3296	-5.3229	177.7368	37.5400	39	0	0 
01830.112	0.0557	-0.0149	0.9971	0.0000	0.0000	0.0000	-0.3296	-5.3229	177.7368	37.5400	39	0	0 
01830.123	0.0557	-0.0149	0.9971	0.0000	0.0000	0.0000	-0.3296	-5.3229	177.7368	37.5500	39	0	0 
01830.125	0.0557	-0.0149	0.9971	0.0000	0.0000	0.0000	-0.3296	-5.3229	177.7368	37.5500	39	0	0 
01830.125	0.0557	-0.0149	0.9971	0.0000	0.0000	0.0000	-0.3296	-5.3229	177.7368	37.4800	40	0	0 
01830.134	0.0554	-0.0146	0.9971	0.0000	0.0000	0.0000	-0.3296	-5.3229	177.7368	37.4800	40	0	0 
01830.141	0.0554	-0.0146	0.9971	0.0000	0.0000	0.0000	-0.3296	-5.3229	177.7368	37.4700	40	0	0 
01830.141	0.0554	-0.0146	0.9971	0.0000	0.0000	0.0000	-0.3296	-5.3229	177.7368	37.4700	39	0	0 
01830.147	0.0554	-0.0146	0.9971	0.0000	0.0000	0.0000	-0.3296	-5.3229	177.7368	37.4900	39	0	0 
01830.157	0.0554	-0.0146	0.9971	0.0000	0.0000	0.0000	-0.3296	-5.3229	177.7368	37.4900	39	0	0 
01830.157	0.0554	-0.0146	0.9971	0.0000	0.0000	0.0000	-0.3296	-5.3229	177.7368	37.4400	39	0	0 
01830.161	0.0554	-0.0146	0.9971	0.0000	0.0000	0.0000	-0.3296	-5.3229	177.7368	37.4400	39	0	0 
01830.171	0.0554	-0.0146	0.9971	0.0000	0.0000	0.0000	-0.3296	-5.3229	177.7368	37.4400	39	0	0 
01830.177	0.0557	-0.0151	0.9968	0.0000	0.0000	0.0000	-0.3296	-5.3229	177.7368	37.4600	38	0	0 
01830.177	0.0557	-0.0151	0.9968	0.0000	0.0000	0.0000	-0.3296	-5.3229	177.7368	37.4600	38	0	0 
01830.187	0.0557	-0.0151	0.9968	0.0000	0.0000	0.0000	-0.3296	-5.3229	177.7368	37.4600	38	0	0 
01830.191	0.0557	-0.0151	0.9968	0.0000	0.0000	0.0000	-0.3296	-5.3229	177.7368	37.4600	39	0	0 
01830.191	0.0557	-0.0151	0.9968	0.0000	0.0000	0.0000	-0.3296	-5.3229	177.7368	37.4900	40	0	0 
01830.201	0.0557	-0.0151	0.9968	0.0000	0.0000	0.0000	-0.3296	-5.3229	177.7368	37.4900	41	0	0 
01830.231	0.0557	-0.0151	0.9968	0.0000	0.0000	0.0000	-0.3296	-5.3229	177.7368	37.4600	42	0	0 
01830.231	0.0557	-0.0151	0.9968	0.0000	0.0000	0.0000	-0.3296	-5.3229	177.7368	37.4600	42	0	0 
01830.233	0.0549	-0.0146	0.9976	0.0000	0.0000	0.0000	-0.3296	-5.3229	177.7368	37.4400	42	0	0 
01830.233	0.0549	-0.0146	0.9976	0.0000	0.0000	0.0000	-0.3296	-5.3229	177.7368	37.4400	42	0	0 
01830.233	0.0549	-0.0146	0.9976	0.0000	0.0000	0.0000	-0.3296	-5.3229	177.7368	37.5000	43	0	0 
01830.233	0.0549	-0.0146	0.9976	0.0000	0.0000	0.0000	-0.3296	-5.3229	177.7368	37.5000	43	0	0 
01830.237	0.0549	-0.0146	0.9976	0.0000	0.0000	0.0000	-0.3296	-5.3229	177.7368	37.4800	43	0	0 
01830.237	0.0549	-0.0146	0.9976	0.0000	0.0000	0.0000	-0.3296	-5.3229	177.7368	37.4800	43	0	0 
01830.242	0.0549	-0.0146	0.9976	0.0000	0.0000	0.0000	-0.3296	-5.3229	177.7368	37.5100	43	0	0 
01830.251	0.0549	-0.0146	0.9976	0.0000	0.0000	0.0000	-0.3296	-5.3229	177.7368	37.5100	42	0	0 
01830.260	0.0547	-0.0146	0.9973	0.0000	0.0000	0.0000	-0.3296	-5.3229	177.7368	37.5100	43	0	0 
01830.260	0.0547	-0.0146	0.9973	0.0000	0.0000	0.0000	-0.3296	-5.3229	177.7368	37.4400	43	0	0 
01830.264	0.0547	-0.0146	0.9973	0.0000	0.0000	0.0000	-0.3296	-5.3229	177.7368	37.4400	44	0	0 
01830.270	0.0547	-0.0146	0.9973	0.0000	0.0000	0.0000	-0.3296	-5.3229	177.7368	37.5000	44	0	0 
01830.270	0.0547	-0.0146	0.9973	0.0000	0.0000	0.0000	-0.3296	-5.3229	177.7368	37.5000	44	0	0 
01830.280	0.0547	-0.0146	0.9973	0.0000	0.0000	0.0000	-0.3296	-5.3229	177.7368	37.4600	45	0	0 
01830.284	0.0547	-0.0146	0.9973	0.0000	0.0000	0.0000	-0.3296	-5.3229	177.7368	37.4600	44	0	0 
01830.287	0.0547	-0.0146	0.9973	0.0000	0.0000	0.0000	-0.3296	-5.3229	177.7368	37.5000	43	0	0 
01830.295	0.0542	-0.0146	0.9976	0.0000	0.0000	0.0000	-0.3296	-5.3229	177.7368	37.5000	43	0	0 
01830.301	0.0542	-0.0146	0.9976	0.0000	0.0000	0.0000	-0.3296	-5.3229	177.7368	37.4300	43	0	0 
01830.301	0.0542	-0.0146	0.9976	0.0000	0.0000	0.0000	-0.3296	-5.3229	177.7368	37.4300	42	0	0 
01830.309	0.0542	-0.0146	0.9976	0.0000	0.0000	0.0000	-0.3296	-5.3229	177.7368	37.4700	42	0	0 
01830.315	0.0542	-0.0146	0.9976	0.0000	0.0000	0.0000	-0.3296	-5.3229	177.7368	37.4700	42	0	0 
01830.315	0.0542	-0.0146	0.9976	0.0000	0.0000	0.0000	-0.3296	-5.3229	177.7368	37.5300	43	0	0 
01830.321	0.0542	-0.0146	0.9976	0.0000	0.0000	0.0000	-0.3296	-5.3229	177.7368	37.5300	43	0	0 
01830.331	0.0542	-0.0146	0.9976	0.0000	0.0000	0.0000	-0.3296	-5.3229	177.7368	37.4100	43	0	0 
01830.335	0.0540	-0.0144	0.9976	0.0000	0.0000	0.0000	-0.3296	-5.3229	177.7368	37.4100	42	0	0 
01830.335	0.0540	-0.0144	0.9976	0.0000	0.0000	0.0000	-0.3296	-5.3229	177.7368	37.4100	41	0	0 
01830.386	0.0540	-0.0144	0.9976	0.0000	0.0000	0.0000	-0.3296	-5.3229	177.7368	37.4100	41	0	0 
01830.389	0.0540	-0.0144	0.9976	0.0000	0.0000	0.0000	-0.3296	-5.3229	177.7368	37.4100	42	0	0 
01830.389	0.0540	-0.0144	0.9976	0.0000	0.0000	0.0000	-0.3296	-5.3229	177.7368	37.5000	42	0	0 
01830.393	0.0540	-0.0144	0.9976	0.0000	0.0000	0.0000	-0.3296	-5.3229	177.7368	37.5000	42	0	0 
01830.395	0.0540	-0.0144	0.9976	0.0000	0.0000	0.0000	-0.3296	-5.3229	177.7368	37.5200	42	0	0 
01830.395	0.0540	-0.0144	0.9976	0.0000	0.0000	0.0000	-0.3296	-5.3229	177.7368	37.5200	42	0	0 
01830.397	0.0537	-0.0144	0.9973	0.0000	0.0000	0.0000	-0.3296	-5.3229	177.7368	37.5500	43	0	0 
01830.399	0.0537	-0.0144	0.9973	0.0000	0.0000	0.0000	-0.3296	-5.3229	177.7368	37.5500	43	0	0 
01830.399	0.0537	-0.0144	0.9973	0.0000	0.0000	0.0000	-0.3296	-5.3229	177.7368	37.4200	43	0	0 
01830.404	0.0537	-0.0144	0.9973	0.0000	0.0000	0.0000	-0.3296	-5.3229	177.7368	37.4200	43	0	0 
01830.406	0.0537	-0.0144	0.9973	0.0000	0.0000	0.0000	-0.3296	-5.3229	177.7368	37.5300	43	0	0 
01830.406	0.0537	-0.0144	0.9973	0.0000	0.0000	0.0000	-0.3296	-5.3229	177.7368	37.5300	43	0	0 
01830.408	0.0537	-0.0144	0.9973	0.0000	0.0000	0.0000	-0.3296	-5.3229	177.7368	37.4600	44	0	0 
01830.410	0.0537	-0.0144	0.9973	0.0000	0.0000	0.0000	-0.3296	-5.3229	177.7368	37.4600	43	0	0 
01830.410	0.0540	-0.0142	0.9971	0.0000	0.0000	0.0000	-0.3296	-5.3229	177.7368	37.4600	43	0	0 
01830.418	0.0540	-0.0142	0.9971	0.0000	0.0000	0.0000	-0.3296	-5.3229	177.7368	37.4800	42	0	0 
01830.427	0.0540	-0.0142	0.9971	0.0000	0.0000	0.0000	-0.3296	-5.3229	177.7368	37.4800	41	0	0 
01830.430	0.0540	-0.0142	0.9971	0.0000	0.0000	0.0000	-0.3296	-5.3229	177.7368	37.4400	41	0	0 
01830.430	0.0540	-0.0142	0.9971	0.0000	0.0000	0.0000	-0.3296	-5.3229	177.7368	37.4400	41	0	0 
01830.458	0.0540	-0.0142	0.9971	0.0000	0.0000	0.0000	-0.3296	-5.3229	177.7368	37.4700	41	0	0 
01830.480	0.0540	-0.0142	0.9971	0.0000	0.0000	0.0000	-0.3296	-5.3229	177.7368	37.4700	41	0	0 
01830.480	0.0540	-0.0142	0.9971	0.0000	0.0000	0.0000	-0.3296	-5.3229	177.7368	37.4900	40	0	0 
01830.506	0.0537	-0.0142	0.9973	0.0000	0.0000	0.0000	-0.3296	-5.3229	177.7368	37.4900	39	0	0 
01830.513	0.0537	-0.0142	0.9973	0.0000	0.0000	0.0000	-0.3296	-5.3229	177.7368	37.4100	40	0	0 
01830.513	0.0537	-0.0142	0.9973	0.0000	0.0000	0.0000	-0.3296	-5.3229	177.7368	37.4100	40	0	0 
01830.518	0.0537	-0.0142	0.9973	0.0000	0.0000	0.0000	-0.3296	-5.3229	177.7368	37.4700	41	0	0 
01830.521	0.0537	-0.0142	0.9973	0.0000	0.0000	0.0000	-0.3296	-5.3229	177.7368	37.4700	41	0	0 
01830.521	0.0537	-0.0142	0.9973	0.0000	0.0000	0.0000	-0.3296	-5.3229	177.7368	37.4700	42	0	0 
01830.523	0.0537	-0.0142	0.9973	0.0000	0.0000	0.0000	-0.3296	-5.3229	177.7368	37.4700	42	0	0 
01830.526	0.0537	-0.0142	0.9973	0.0000	0.0000	0.0000	-0.3296	-5.3229	177.7368	37.4900	43	0	0 
01830.526	0.0542	-0.0144	0.9971	0.0000	0.0000	0.0000	-0.3296	-5.3229	177.7368	37.4900	43	0	0 
01830.528	0.0542	-0.0144	0.9971	0.0000	0.0000	0.0000	-0.3296	-5.3229	177.7368	37.4900	44	0	0 
01830.533	0.0542	-0.0144	0.9971	0.0000	0.0000	0.0000	-0.3296	-5.3229	177.7368	37.4900	44	0	0 
01830.535	0.0542	-0.0144	0.9971	0.0000	0.0000	0.0000	-0.3296	-5.3229	177.7368	37.4900	44	0	0 
01830.535	0.0542	-0.0144	0.9971	0.0000	0.0000	0.0000	-0.3296	-5.3174	177.7368	37.4700	44	0	0 
01830.537	0.0542	-0.0144	0.9971	0.0000	0.0000	0.0000	-0.3296	-5.3174	177.7368	37.4700	44	0	0 
01830.539	0.0542	-0.0144	0.9971	0.0000	0.0000	0.0000	-0.3296	-5.3174	177.7368	37.4600	44	0	0 
01830.539	0.0542	-0.0144	0.9971	0.0000	0.0000	0.0000	-0.3296	-5.3174	177.7368	37.4600	43	0	0 
01830.541	0.0542	-0.0142	0.9973	0.0000	0.0000	0.0000	-0.3296	-5.3174	177.7368	37.4700	43	0	0 
01830.543	0.0542	-0.0142	0.9973	0.0000	0.0000	0.0000	-0.3296	-5.3174	177.7368	37.4700	42	0	0 
01830.543	0.0542	-0.0142	0.9973	0.0000	0.0000	0.0000	-0.3296	-5.3174	177.7368	37.4700	41	0	0 
01830.551	0.0542	-0.0142	0.9973	0.0000	0.0000	0.0000	-0.3296	-5.3174	177.7368	37.4700	42	0	0 
01830.554	0.0542	-0.0142	0.9973	0.0000	0.0000	0.0000	-0.3296	-5.3174	177.7368	37.4700	42	0	0 
01830.554	0.0542	-0.0142	0.9973	0.0000	0.0000	0.0000	-0.3296	-5.3174	177.7368	37.4700	40	0	0 
01830.564	0.0542	-0.0142	0.9973	0.0000	0.0000	0.0000	-0.3296	-5.3174	177.7368	37.4700	39	0	0 
01830.571	0.0542	-0.0142	0.9973	0.0000	0.0000	0.0000	-0.3296	-5.3174	177.7368	37.4700	37	0	0 
01830.571	0.0542	-0.0144	0.9976	0.0000	0.0000	0.0000	-0.3296	-5.3174	177.7368	37.4600	36	0	0 
01830.577	0.0542	-0.0144	0.9976	0.0000	0.0000	0.0000	-0.3241	-5.3174	177.7368	37.4600	36	0	0 
01830.588	0.0542	-0.0144	0.9976	0.0000	0.0000	0.0000	-0.3241	-5.3174	177.7368	37.4600	37	0	0 
01830.596	0.0542	-0.0144	0.9976	0.0000	0.0000	0.0000	-0.3241	-5.3174	177.7368	37.4000	37	0	0 
01830.596	0.0542	-0.0144	0.9976	0.0000	0.0000	0.0000	-0.3241	-5.3174	177.7368	37.4000	37	0	0 
01830.601	0.0542	-0.0144	0.9976	0.0000	0.0000	0.0000	-0.3241	-5.3174	177.7368	37.4400	37	0	0 
01830.607	0.0542	-0.0144	0.9976	0.0000	0.0000	0.0000	-0.3241	-5.3174	177.7368	37.4400	37	0	0 
01830.607	0.0542	-0.0144	0.9976	0.0000	0.0000	0.0000	-0.3241	-5.3174	177.7368	37.4400	38	0	0 
01830.635	0.0544	-0.0142	0.9976	0.0000	0.0000	0.0000	-0.3241	-5.3174	177.7368	37.4400	38	0	0 
01830.637	0.0544	-0.0142	0.9976	0.0000	0.0000	0.0000	-0.3241	-5.3174	177.7368	37.5300	39	0	0 
01830.637	0.0544	-0.0142	0.9976	0.0000	0.0000	0.0000	-0.3241	-5.3174	177.7368	37.5300	40	0	0 
01830.637	0.0544	-0.0142	0.9976	0.0000	0.0000	0.0000	-0.3241	-5.3174	177.7368	37.4400	41	0	0 
01830.637	0.0544	-0.0142	0.9976	0.0000	0.0000	0.0000	-0.3241	-5.3174	177.7368	37.4400	41	0	0 
01830.637	0.0544	-0.0142	0.9976	0.0000	0.0000	0.0000	-0.3241	-5.3174	177.7368	37.5000	41	0	0 
01830.640	0.0544	-0.0142	0.9976	0.0000	0.0000	0.0000	-0.3241	-5.3174	177.7368	37.5000	41	0	0 
01830.653	0.0544	-0.0142	0.9976	0.0000	0.0000	0.0000	-0.3241	-5.3174	177.7368	37.4700	41	0	0 
01830.653	0.0544	-0.0144	0.9980	0.0000	0.0000	0.0000	-0.3241	-5.3174	177.7368	37.4700	42	0	0 
01830.660	0.0544	-0.0144	0.9980	0.0000	0.0000	0.0000	-0.3241	-5.3174	177.7368	37.4700	42	0	0 
01830.662	0.0544	-0.0144	0.9980	0.0000	0.0000	0.0000	-0.3241	-5.3174	177.7368	37.4700	42	0	0 
01830.674	0.0544	-0.0144	0.9980	0.0000	0.0000	0.0000	-0.3241	-5.3174	177.7368	37.4700	41	0	0 
01830.674	0.0544	-0.0144	0.9980	0.0000	0.0000	0.0000	-0.3241	-5.3174	177.7368	37.5200	41	0	0 
01830.680	0.0544	-0.0144	0.9980	0.0000	0.0000	0.0000	-0.3241	-5.3174	177.7368	37.5200	40	0	0 
01830.686	0.0544	-0.0144	0.9980	0.0000	0.0000	0.0000	-0.3241	-5.3174	177.7368	37.3800	40	0	0 
01830.686	0.0544	-0.0144	0.9980	0.0000	0.0000	0.0000	-0.3241	-5.3174	177.7368	37.3800	41	0	0 
01830.692	0.0544	-0.0139	0.9978	0.0000	0.0000	0.0000	-0.3241	-5.3174	177.7368	37.4500	42	0	0 
01830.703	0.0544	-0.0139	0.9978	0.0000	0.0000	0.0000	-0.3241	-5.3174	177.7368	37.4500	44	0	0 
01830.703	0.0544	-0.0139	0.9978	0.0000	0.0000	0.0000	-0.3241	-5.3174	177.7368	37.5100	44	0	0 
01830.709	0.0544	-0.0139	0.9978	0.0000	0.0000	0.0000	-0.3241	-5.3174	177.7368	37.5100	44	0	0 
01830.716	0.0544	-0.0139	0.9978	0.0000	0.0000	0.0000	-0.3241	-5.3174	177.7368	37.5100	43	0	0 
01830.716	0.0544	-0.0139	0.9978	0.0000	0.0000	0.0000	-0.3241	-5.3174	177.7368	37.5100	43	0	0 
01830.725	0.0544	-0.0139	0.9978	0.0000	0.0000	0.0000	-0.3241	-5.3174	177.7368	37.4900	43	0	0 
01830.728	0.0544	-0.0139	0.9978	0.0000	0.0000	0.0000	-0.3241	-5.3174	177.7368	37.4900	43	0	0 
01830.728	0.0544	-0.0144	0.9978	0.0000	0.0000	0.0000	-0.3241	-5.3174	177.7368	37.4500	43	0	0 
01830.741	0.0544	-0.0144	0.9978	0.0000	0.0000	0.0000	-0.3241	-5.3174	177.7368	37.4500	44	0	0 
01830.746	0.0544	-0.0144	0.9978	0.0000	0.0000	0.0000	-0.3241	-5.3174	177.7368	37.4400	43	0	0 
01830.746	0.0544	-0.0144	0.9978	0.0000	0.0000	0.0000	-0.3241	-5.3174	177.7368	37.4400	43	0	0 
01830.755	0.0544	-0.0144	0.9978	0.0000	0.0000	0.0000	-0.3241	-5.3174	177.7368	37.4400	43	0	0 
01830.758	0.0544	-0.0144	0.9978	0.0000	0.0000	0.0000	-0.3241	-5.3174	177.7368	37.4200	44	0	0 
01830.773	0.0544	-0.0144	0.9978	0.0000	0.0000	0.0000	-0.3241	-5.3174	177.7368	37.4200	43	0	0 
01830.773	0.0544	-0.0144	0.9978	0.0000	0.0000	0.0000	-0.3241	-5.3174	177.7368	37.4600	42	0	0 
01830.775	0.0547	-0.0142	0.9973	0.0000	0.0000	0.0000	-0.3241	-5.3174	177.7368	37.4600	42	0	0 
01830.783	0.0547	-0.0142	0.9973	0.0000	0.0000	0.0000	-0.3241	-5.3174	177.7368	37.4600	42	0	0 
01830.783	0.0547	-0.0142	0.9973	0.0000	0.0000	0.0000	-0.3241	-5.3174	177.7368	37.4600	41	0	0 
01830.788	0.0547	-0.0142	0.9973	0.0000	0.0000	0.0000	-0.3241	-5.3174	177.7368	37.4900	40	0	0 
01830.797	0.0547	-0.0142	0.9973	0.0000	0.0000	0.0000	-0.3241	-5.3174	177.7368	37.4900	40	0	0 
01830.797	0.0547	-0.0142	0.9973	0.0000	0.0000	0.0000	-0.3241	-5.3174	177.7368	37.4700	39	0	0 
01830.803	0.0547	-0.0142	0.9973	0.0000	0.0000	0.0000	-0.3241	-5.3174	177.7368	37.4700	39	0	0 
01830.812	0.0547	-0.0142	0.9973	0.0000	0.0000	0.0000	-0.3241	-5.3174	177.7368	37.4100	38	0	0 
01830.812	0.0544	-0.0142	0.9973	0.0000	0.0000	0.0000	-0.3241	-5.3174	177.7368	37.4100	38	0	0 
01830.815	0.0544	-0.0142	0.9973	0.0000	0.0000	0.0000	-0.3241	-5.3174	177.7368	37.4800	39	0	0 
01830.827	0.0544	-0.0142	0.9973	0.0000	0.0000	0.0000	-0.3241	-5.3174	177.7368	37.4800	39	0	0 
01830.827	0.0544	-0.0142	0.9973	0.0000	0.0000	0.0000	-0.3241	-5.3174	177.7368	37.4800	39	0	0 
01830.829	0.0544	-0.0142	0.9973	0.0000	0.0000	0.0000	-0.3241	-5.3174	177.7368	37.4700	40	0	0 
01830.865	0.0544	-0.0142	0.9973	0.0000	0.0000	0.0000	-0.3241	-5.3174	177.7368	37.4700	40	0	0 
01830.867	0.0544	-0.0142	0.9973	0.0000	0.0000	0.0000	-0.3241	-5.3174	177.7368	37.4700	40	0	0 
01830.867	0.0544	-0.0142	0.9973	0.0000	0.0000	0.0000	-0.3241	-5.3174	177.7368	37.4700	39	0	0 
01830.867	0.0547	-0.0146	0.9971	0.0000	0.0000	0.0000	-0.3241	-5.3174	177.7368	37.4700	39	0	0 
01830.867	0.0547	-0.0146	0.9971	0.0000	0.0000	0.0000	-0.3241	-5.3174	177.7368	37.4700	39	0	0 
01830.867	0.0547	-0.0146	0.9971	0.0000	0.0000	0.0000	-0.3241	-5.3174	177.7368	37.4400	38	0	0 
01830.869	0.0547	-0.0146	0.9971	0.0000	0.0000	0.0000	-0.3241	-5.3174	177.7368	37.4400	39	0	0 
01830.878	0.0547	-0.0146	0.9971	0.0000	0.0000	0.0000	-0.3241	-5.3174	177.7368	37.4400	40	0	0 
01830.878	0.0547	-0.0146	0.9971	0.0000	0.0000	0.0000	-0.3241	-5.3174	177.7368	37.4400	41	0	0 
01830.887	0.0547	-0.0146	0.9971	0.0000	0.0000	0.0000	-0.3241	-5.3174	177.7368	37.4700	41	0	0 
01830.891	0.0547	-0.0146	0.9971	0.0000	0.0000	0.0000	-0.3241	-5.3174	177.7368	37.4700	42	0	0 
01830.891	0.0544	-0.0144	0.9973	0.0000	0.0000	0.0000	-0.3241	-5.3174	177.7368	37.4900	42	0	0 
01830.898	0.0544	-0.0144	0.9973	0.0000	0.0000	0.0000	-0.3241	-5.3174	177.7368	37.4900	41	0	0 
01830.907	0.0544	-0.0144	0.9973	0.0000	0.0000	0.0000	-0.3241	-5.3174	177.7368	37.5000	40	0	0 
01830.913	0.0544	-0.0144	0.9973	0.0000	0.0000	0.0000	-0.3241	-5.3174	177.7368	37.5000	40	0	0 
01830.913	0.0544	-0.0144	0.9973	0.0000	0.0000	0.0000	-0.3241	-5.3174	177.7368	37.5000	39	0	0 
01830.922	0.0544	-0.0144	0.9973	0.0000	0.0000	0.0000	-0.3241	-5.3174	177.7368	37.4400	39	0	0 
01830.927	0.0544	-0.0144	0.9973	0.0000	0.0000	0.0000	-0.3241	-5.3174	177.7368	37.4400	38	0	0 
01830.927	0.0544	-0.0144	0.9973	0.0000	0.0000	0.0000	-0.3241	-5.3174	177.7368	37.4600	38	0	0 
01830.935	0.0547	-0.0146	0.9971	0.0000	0.0000	0.0000	-0.3241	-5.3174	177.7368	37.4600	38	0	0 
01830.943	0.0547	-0.0146	0.9971	0.0000	0.0000	0.0000	-0.3241	-5.3174	177.7368	37.5100	39	0	0 
01830.943	0.0547	-0.0146	0.9971	0.0000	0.0000	0.0000	-0.3241	-5.3174	177.7368	37.5100	39	0	0 
01830.946	0.0547	-0.0146	0.9971	0.0000	0.0000	0.0000	-0.3241	-5.3174	177.7368	37.4200	40	0	0 
01830.956	0.0547	-0.0146	0.9971	0.0000	0.0000	0.0000	-0.3241	-5.3174	177.7368	37.4200	41	0	0 
01830.956	0.0547	-0.0146	0.9971	0.0000	0.0000	0.0000	-0.3241	-5.3174	177.7368	37.4600	41	0	0 
01830.964	0.0547	-0.0146	0.9971	0.0000	0.0000	0.0000	-0.3241	-5.3174	177.7368	37.4600	41	0	0 
01830.973	0.0547	-0.0146	0.9971	0.0000	0.0000	0.0000	-0.3241	-5.3174	177.7368	37.4900	42	0	0 
01830.973	0.0542	-0.0146	0.9973	0.0000	0.0000	0.0000	-0.3241	-5.3174	177.7368	37.4900	42	0	0 
01830.976	0.0542	-0.0146	0.9973	0.0000	0.0000	0.0000	-0.3241	-5.3174	177.7368	37.4200	41	0	0 
01830.987	0.0542	-0.0146	0.9973	0.0000	0.0000	0.0000	-0.3241	-5.3174	177.7368	37.4200	41	0	0 
01830.987	0.0542	-0.0146	0.9973	0.0000	0.0000	0.0000	-0.3241	-5.3174	177.7368	37.4300	41	0	0 
01830.990	0.0542	-0.0146	0.9973	0.0000	0.0000	0.0000	-0.3241	-5.3174	177.7368	37.4300	41	0	0 
01831.000	0.0542	-0.0146	0.9973	0.0000	0.0000	0.0000	-0.3241	-5.3174	177.7368	37.4300	42	0	0 
01831.007	0.0542	-0.0146	0.9973	0.0000	0.0000	0.0000	-0.3241	-5.3174	177.7368	37.4600	42	0	0 
01831.007	0.0542	-0.0146	0.9973	0.0000	0.0000	0.0000	-0.3241	-5.3174	177.7368	37.4600	42	0	0 
01831.014	0.0544	-0.0144	0.9971	0.0000	0.0000	0.0000	-0.3241	-5.3174	177.7368	37.4300	41	0	0 
01831.039	0.0544	-0.0144	0.9971	0.0000	0.0000	0.0000	-0.3241	-5.3174	177.7368	37.4300	41	0	0 
01831.039	0.0544	-0.0144	0.9971	0.0000	0.0000	0.0000	-0.3241	-5.3174	177.7368	37.4200	41	0	0 
01831.041	0.0544	-0.0144	0.9971	0.0000	0.0000	0.0000	-0.3241	-5.3174	177.7368	37.4200	42	0	0 
01831.041	0.0544	-0.0144	0.9971	0.0000	0.0000	0.0000	-0.3241	-5.3174	177.7368	37.4700	42	0	0 
01831.041	0.0544	-0.0144	0.9971	0.0000	0.0000	0.0000	-0.3241	-5.3174	177.7368	37.4700	42	0	0 
01831.043	0.0544	-0.0144	0.9971	0.0000	0.0000	0.0000	-0.3241	-5.3174	177.7368	37.4600	42	0	0 
01831.053	0.0544	-0.0144	0.9971	0.0000	0.0000	0.0000	-0.3241	-5.3174	177.7368	37.4600	43	0	0 
01831.053	0.0542	-0.0142	0.9973	0.0000	0.0000	0.0000	-0.3241	-5.3174	177.7368	37.4900	43	0	0 
01831.056	0.0542	-0.0142	0.9973	0.0000	0.0000	0.0000	-0.3241	-5.3174	177.7368	37.4900	43	0	0 
01831.066	0.0542	-0.0142	0.9973	0.0000	0.0000	0.0000	-0.3241	-5.3174	177.7368	37.4900	43	0	0 
01831.066	0.0542	-0.0142	0.9973	0.0000	0.0000	0.0000	-0.3241	-5.3174	177.7368	37.4900	43	0	0 
01831.070	0.0542	-0.0142	0.9973	0.0000	0.0000	0.0000	-0.3241	-5.3174	177.7368	37.4600	43	0	0 
01831.104	0.0542	-0.0142	0.9973	0.0000	0.0000	0.0000	-0.3241	-5.3174	177.7368	37.4600	42	0	0 
01831.109	0.0542	-0.0142	0.9973	0.0000	0.0000	0.0000	-0.3186	-5.3174	177.7368	37.4600	42	0	0 
01831.109	0.0542	-0.0142	0.9973	0.0000	0.0000	0.0000	-0.3186	-5.3174	177.7368	37.5200	41	0	0 
01831.111	0.0544	-0.0144	0.9973	0.0000	0.0000	0.0000	-0.3186	-5.3174	177.7368	37.5200	43	0	0 
01831.114	0.0544	-0.0144	0.9973	0.0000	0.0000	0.0000	-0.3186	-5.3174	177.7368	37.5600	44	0	0 
01831.114	0.0544	-0.0144	0.9973	0.0000	0.0000	0.0000	-0.3186	-5.3174	177.7368	37.5600	44	0	0 
01831.116	0.0544	-0.0144	0.9973	0.0000	0.0000	0.0000	-0.3186	-5.3174	177.7368	37.5100	44	0	0 
01831.121	0.0544	-0.0144	0.9973	0.0000	0.0000	0.0000	-0.3186	-5.3174	177.7368	37.5100	44	0	0 
01831.121	0.0544	-0.0144	0.9973	0.0000	0.0000	0.0000	-0.3186	-5.3174	177.7368	37.4500	44	0	0 
01831.123	0.0544	-0.0144	0.9973	0.0000	0.0000	0.0000	-0.3186	-5.3174	177.7368	37.4500	44	0	0 
01831.131	0.0544	-0.0144	0.9973	0.0000	0.0000	0.0000	-0.3186	-5.3174	177.7368	37.4200	45	0	0 
01831.131	0.0544	-0.0142	0.9978	0.0000	0.0000	0.0000	-0.3186	-5.3174	177.7368	37.4200	44	0	0 
01831.139	0.0544	-0.0142	0.9978	0.0000	0.0000	0.0000	-0.3186	-5.3174	177.7368	37.4700	44	0	0 
01831.148	0.0544	-0.0142	0.9978	0.0000	0.0000	0.0000	-0.3186	-5.3174	177.7368	37.4700	44	0	0 
01831.148	0.0544	-0.0142	0.9978	0.0000	0.0000	0.0000	-0.3186	-5.3174	177.7368	37.4800	45	0	0 
01831.153	0.0544	-0.0142	0.9978	0.0000	0.0000	0.0000	-0.3186	-5.3174	177.7368	37.4800	45	0	0 
01831.162	0.0544	-0.0142	0.9978	0.0000	0.0000	0.0000	-0.3186	-5.3174	177.7368	37.4600	46	0	0 
01831.162	0.0544	-0.0142	0.9978	0.0000	0.0000	0.0000	-0.3186	-5.3174	177.7368	37.4600	46	0	0 
01831.166	0.0544	-0.0142	0.9978	0.0000	0.0000	0.0000	-0.3186	-5.3174	177.7368	37.4600	45	0	0 
01831.177	0.0544	-0.0144	0.9976	0.0000	0.0000	0.0000	-0.3186	-5.3174	177.7368	37.4700	45	0	0 
01831.179	0.0544	-0.0144	0.9976	0.0000	0.0000	0.0000	-0.3186	-5.3174	177.7368	37.4700	45	0	0 
01831.180	0.0544	-0.0144	0.9976	0.0000	0.0000	0.0000	-0.3186	-5.3174	177.7368	37.4500	46	0	0 
01831.189	0.0544	-0.0144	0.9976	0.0000	0.0000	0.0000	-0.3186	-5.3174	177.7368	37.4500	46	0	0 
01831.197	0.0544	-0.0144	0.9976	0.0000	0.0000	0.0000	-0.3186	-5.3174	177.7368	37.4700	46	0	0 
01831.197	0.0544	-0.0144	0.9976	0.0000	0.0000	0.0000	-0.3186	-5.3174	177.7368	37.4700	45	0	0 
01831.204	0.0544	-0.0144	0.9976	0.0000	0.0000	0.0000	-0.3186	-5.3174	177.7368	37.3900	45	0	0 
01831.211	0.0544	-0.0144	0.9976	0.0000	0.0000	0.0000	-0.3186	-5.3174	177.7368	37.3900	46	0	0 
01831.218	0.0542	-0.0149	0.9978	0.0000	0.0000	0.0000	-0.3186	-5.3174	177.7368	37.5100	45	0	0 
01831.218	0.0542	-0.0149	0.9978	0.0000	0.0000	0.0000	-0.3186	-5.3174	177.7368	37.5100	45	0	0 
01831.228	0.0542	-0.0149	0.9978	0.0000	0.0000	0.0000	-0.3186	-5.3174	177.7368	37.5000	45	0	0 
01831.228	0.0542	-0.0149	0.9978	0.0000	0.0000	0.0000	-0.3186	-5.3174	177.7368	37.5000	46	0	0 
01831.232	0.0542	-0.0149	0.9978	0.0000	0.0000	0.0000	-0.3186	-5.3174	177.7368	37.4700	45	0	0 
01831.242	0.0542	-0.0149	0.9978	0.0000	0.0000	0.0000	-0.3186	-5.3174	177.7368	37.4700	45	0	0 
01831.242	0.0542	-0.0149	0.9978	0.0000	0.0000	0.0000	-0.3186	-5.3174	177.7368	37.4700	45	0	0 
01831.264	0.0540	-0.0149	0.9978	0.0000	0.0000	0.0000	-0.3186	-5.3174	177.7368	37.4400	45	0	0 
01831.266	0.0540	-0.0149	0.9978	0.0000	0.0000	0.0000	-0.3186	-5.3174	177.7368	37.4400	45	0	0 
01831.266	0.0540	-0.0149	0.9978	0.0000	0.0000	0.0000	-0.3186	-5.3174	177.7368	37.4500	45	0	0 
01831.266	0.0540	-0.0149	0.9978	0.0000	0.0000	0.0000	-0.3186	-5.3174	177.7368	37.4500	45	0	0 
01831.268	0.0540	-0.0149	0.9978	0.0000	0.0000	0.0000	-0.3186	-5.3174	177.7368	37.4400	45	0	0 
01831.278	0.0540	-0.0149	0.9978	0.0000	0.0000	0.0000	-0.3186	-5.3174	177.7368	37.4400	44	0	0 
01831.278	0.0540	-0.0149	0.9978	0.0000	0.0000	0.0000	-0.3186	-5.3174	177.7368	37.4500	44	0	0 
01831.282	0.0540	-0.0149	0.9978	0.0000	0.0000	0.0000	-0.3186	-5.3174	177.7368	37.4500	44	0	0 
01831.292	0.1382	-0.0205	1.0471	0.0000	0.0000	0.0000	-0.3241	-5.3284	177.7368	37.4700	44	0	0 
01831.292	0.1382	-0.0205	1.0471	0.0000	0.0000	0.0000	-0.3241	-5.3448	177.7368	37.4700	44	0	0 
01831.298	0.1382	-0.0205	1.0471	0.0000	0.0000	0.0000	-0.3241	-5.3558	177.7368	37.4400	43	0	0 
01831.311	0.1382	-0.0205	1.0471	0.0000	0.0000	0.0000	-0.3241	-5.3723	177.7368	37.4400	43	0	0 
01831.311	0.1382	-0.0205	1.0471	0.0000	0.0000	0.0000	-0.3241	-5.3833	177.7368	37.4800	43	0	0 
01831.313	0.1382	-0.0205	1.0471	0.0000	0.0000	0.0000	-0.3241	-5.3943	177.7368	37.4800	41	0	0 
01831.322	0.1382	-0.0205	1.0471	0.0000	0.0000	0.0000	-0.3241	-5.4108	177.7368	37.4800	40	0	0 
01831.325	0.1382	-0.0205	1.0471	0.0000	0.0000	0.0000	-0.3296	-5.4218	177.7368	37.4800	39	0	0 
01831.325	0.5161	-0.0779	1.0720	0.0000	-0.3662	0.1221	-0.3351	-5.4877	177.7313	37.4800	39	0	0 
01831.335	0.5161	-0.0779	1.0720	0.0000	-0.3662	0.1221	-0.3461	-5.5591	177.7313	37.5000	38	0	0 
01831.341	0.5161	-0.0779	1.0720	0.0000	-0.3662	0.1221	-0.3571	-5.6250	177.7313	37.5000	37	0	0 
01831.341	0.5161	-0.0779	1.0720	0.0000	-0.3662	0.1221	-0.3680	-5.6964	177.7258	37.4700	36	0	0 
01831.349	0.5161	-0.0779	1.0720	0.0000	-0.3662	0.1221	-0.3735	-5.7623	177.7258	37.4700	38	0	0 
01831.358	0.5161	-0.0779	1.0720	0.0000	-0.3662	0.1221	-0.3845	-5.8282	177.7258	37.4200	39	0	0 
01831.358	0.5161	-0.0779	1.0720	0.0000	-0.3662	0.1221	-0.3955	-5.8997	177.7203	37.4200	38	0	0 
01831.362	0.5161	-0.0779	1.0720	0.0000	-0.3662	0.1221	-0.4010	-5.9656	177.7203	37.4900	37	0	0 
01831.375	1.0193	-0.1416	1.0425	0.1831	-2.3804	0.7324	-0.4230	-6.0974	177.7148	37.4900	37	0	0 
01831.375	1.0193	-0.1416	1.0425	0.1831	-2.3804	0.7324	-0.4395	-6.2238	177.7094	37.5100	36	0	0 
01831.378	1.0193	-0.1416	1.0425	0.1831	-2.3804	0.7324	-0.4559	-6.3556	177.7094	37.5100	35	0	0 
01831.386	1.0193	-0.1416	1.0425	0.1831	-2.3804	0.7324	-0.4724	-6.4819	177.7039	37.4900	34	0	0 
01831.394	1.0193	-0.1416	1.0425	0.1831	-2.3804	0.7324	-0.4889	-6.6138	177.6984	37.4900	33	0	0 
01831.394	1.0193	-0.1416	1.0425	0.1831	-2.3804	0.7324	-0.5109	-6.7401	177.6929	37.4800	32	0	0 
01831.406	1.0193	-0.1416	1.0425	0.1831	-2.3804	0.7324	-0.5273	-6.8665	177.6929	37.4800	34	0	0 
01831.409	1.0193	-0.1416	1.0425	0.1831	-2.3804	0.7324	-0.5438	-6.9928	177.6874	37.5100	35	0	0 
01831.409	1.7188	-0.2539	0.9475	0.5493	-5.6152	1.7090	-0.5768	-7.1796	177.6764	37.5100	35	0	0 
01831.415	1.7188	-0.2539	0.9475	0.5493	-5.6152	1.7090	-0.6097	-7.3663	177.6654	37.5100	35	0	0 
01831.445	1.7188	-0.2539	0.9475	0.5493	-5.6152	1.7090	-0.6427	-7.5531	177.6489	37.5100	35	0	0 
01831.445	1.7188	-0.2539	0.9475	0.5493	-5.6152	1.7090	-0.6757	-7.7399	177.6379	37.5100	35	0	0 
01831.447	1.7188	-0.2539	0.9475	0.5493	-5.6152	1.7090	-0.7086	-7.9211	177.6270	37.4300	35	0	0 
01831.447	1.7188	-0.2539	0.9475	0.5493	-5.6152	1.7090	-0.7361	-8.1079	177.6160	37.4300	35	0	0 
01831.447	1.7188	-0.2539	0.9475	0.5493	-5.6152	1.7090	-0.7690	-8.2892	177.6050	37.4700	36	0	0 
01831.447	1.7188	-0.2539	0.9475	0.5493	-5.6152	1.7090	-0.8020	-8.4760	177.5940	37.4700	36	0	0 
01831.451	2.2461	-0.3247	0.8579	1.0376	-7.8125	2.5635	-0.8459	-8.6847	177.5775	37.4600	37	0	0 
01831.458	2.2461	-0.3247	0.8579	1.0376	-7.8125	2.5635	-0.8844	-8.8989	177.5610	37.4600	38	0	0 
01831.458	2.2461	-0.3247	0.8579	1.0376	-7.8125	2.5635	-0.9283	-9.1077	177.5446	37.4500	38	0	0 
01831.473	2.2461	-0.3247	0.8579	1.0376	-7.8125	2.5635	-0.9668	-9.3219	177.5281	37.4500	38	0	0 
01831.478	2.2461	-0.3247	0.8579	1.0376	-7.8125	2.5635	-1.0107	-9.5306	177.5061	37.4300	39	0	0 
01831.478	2.2461	-0.3247	0.8579	1.0376	-7.8125	2.5635	-1.0492	-9.7394	177.4896	37.4300	40	0	0 
01831.483	2.2461	-0.3247	0.8579	1.0376	-7.8125	2.5635	-1.0931	-9.9481	177.4731	37.4600	41	0	0 
01831.488	2.2461	-0.3247	0.8579	1.0376	-7.8125	2.5635	-1.1316	-10.1569	177.4567	37.4600	42	0	0 
01831.488	2.5259	-0.3877	0.7703	1.0986	-6.7749	2.6855	-1.1865	-10.3656	177.4347	37.5200	41	0	0 
01831.499	2.5259	-0.3877	0.7703	1.0986	-6.7749	2.6855	-1.2415	-10.5743	177.4072	37.5200	41	0	0 
01831.502	2.5259	-0.3877	0.7703	1.0986	-6.7749	2.6855	-1.2909	-10.7831	177.3798	37.5200	42	0	0 
01831.502	2.5259	-0.3877	0.7703	1.0986	-6.7749	2.6855	-1.3458	-10.9863	177.3523	37.4400	43	0	0 
01831.510	2.5259	-0.3877	0.7703	1.0986	-6.7749	2.6855	-1.3953	-11.1951	177.3303	37.4400	45	0	0 
01831.522	2.5259	-0.3877	0.7703	1.0986	-6.7749	2.6855	-1.4502	-11.4038	177.3029	37.4600	46	0	0 
01831.522	2.5259	-0.3877	0.7703	1.0986	-6.7749	2.6855	-1.4996	-11.6071	177.2809	37.4600	47	0	0 
01831.524	2.5259	-0.3877	0.7703	1.0986	-6.7749	2.6855	-1.5546	-11.8158	177.2534	37.4600	48	0	0 
01831.533	2.2751	-0.3525	0.6804	0.6714	-1.0376	1.5869	-1.6040	-11.9916	177.2205	37.4600	49	0	0 
01831.543	2.2751	-0.3525	0.6804	0.6714	-1.0376	1.5869	-1.6589	-12.1674	177.1930	37.4400	51	0	0 
01831.543	2.2751	-0.3525	0.6804	0.6714	-1.0376	1.5869	-1.7139	-12.3431	177.1600	37.4400	52	0	0 
01831.545	2.2751	-0.3525	0.6804	0.6714	-1.0376	1.5869	-1.7688	-12.5189	177.1271	37.4200	52	0	0 
01831.559	2.2751	-0.3525	0.6804	0.6714	-1.0376	1.5869	-1.8182	-12.6947	177.0996	37.4200	53	0	0 
01831.559	2.2751	-0.3525	0.6804	0.6714	-1.0376	1.5869	-1.8732	-12.8705	177.0667	37.4500	54	0	0 
01831.562	2.2751	-0.3525	0.6804	0.6714	-1.0376	1.5869	-1.9281	-13.0463	177.0392	37.4500	55	0	0 
01831.565	2.2751	-0.3525	0.6804	0.6714	-1.0376	1.5869	-1.9775	-13.2166	177.0062	37.4400	54	0	0 
01831.565	1.7942	-0.2922	0.5981	0.1831	9.8267	-0.1221	-2.0270	-13.3374	176.9678	37.4400	54	0	0 
01831.578	1.7942	-0.2922	0.5981	0.1831	9.8267	-0.1221	-2.0819	-13.4528	176.9293	37.4400	54	0	0 
01831.592	1.7942	-0.2922	0.5981	0.1831	9.8267	-0.1221	-2.1313	-13.5681	176.8964	37.3700	55	0	0 
01831.592	1.7942	-0.2922	0.5981	0.1831	9.8267	-0.1221	-2.1808	-13.6835	176.8579	37.3700	56	0	0 
01831.596	1.7942	-0.2922	0.5981	0.1831	9.8267	-0.1221	-2.2302	-13.7933	176.8195	37.4500	57	0	0 
01831.598	1.7942	-0.2922	0.5981	0.1831	9.8267	-0.1221	-2.2797	-13.9087	176.7810	37.4500	58	0	0 
01831.598	1.7942	-0.2922	0.5981	0.1831	9.8267	-0.1221	-2.3291	-14.0240	176.7480	37.4500	59	0	0 
01831.603	1.7942	-0.2922	0.5981	0.1831	9.8267	-0.1221	-2.3730	-14.1394	176.7096	37.4500	59	0	0 
01831.616	1.0637	-0.1831	0.4153	0.1831	23.1323	-1.7090	-2.4170	-14.1779	176.6656	37.5000	59	0	0 
01831.618	1.0637	-0.1831	0.4153	0.1831	23.1323	-1.7090	-2.4609	-14.2218	176.6217	37.5000	60	0	0 
01831.618	1.0637	-0.1831	0.4153	0.1831	23.1323	-1.7090	-2.4994	-14.2603	176.5833	37.4800	61	0	0 
01831.627	1.0637	-0.1831	0.4153	0.1831	23.1323	-1.7090	-2.5433	-14.3042	176.5393	37.4800	61	0	0 
01831.633	1.0637	-0.1831	0.4153	0.1831	23.1323	-1.7090	-2.5818	-14.3427	176.4954	37.3800	61	0	0 
01831.633	1.0637	-0.1831	0.4153	0.1831	23.1323	-1.7090	-2.6257	-14.3866	176.4569	37.3800	61	0	0 
01831.643	1.0637	-0.1831	0.4153	0.1831	23.1323	-1.7090	-2.6642	-14.4250	176.4130	37.4900	62	0	0 
01831.646	1.0637	-0.1831	0.4153	0.1831	23.1323	-1.7090	-2.7081	-14.4690	176.3690	37.4900	63	0	0 
01831.646	0.3823	-0.0728	0.2292	1.1597	35.8887	-2.0752	-2.7301	-14.4196	176.3361	37.4100	63	0	0 
01831.673	0.3823	-0.0728	0.2292	1.1597	35.8887	-2.0752	-2.7521	-14.3756	176.3031	37.4100	63	0	0 
01831.675	0.3823	-0.0728	0.2292	1.1597	35.8887	-2.0752	-2.7740	-14.3317	176.2646	37.4100	63	0	0 
01831.675	0.3823	-0.0728	0.2292	1.1597	35.8887	-2.0752	-2.7960	-14.2822	176.2317	37.4700	63	0	0 
01831.675	0.3823	-0.0728	0.2292	1.1597	35.8887	-2.0752	-2.8180	-14.2383	176.1987	37.4700	64	0	0 
01831.679	0.3823	-0.0728	0.2292	1.1597	35.8887	-2.0752	-2.8400	-14.1943	176.1603	37.5300	63	0	0 
01831.679	0.3823	-0.0728	0.2292	1.1597	35.8887	-2.0752	-2.8674	-14.1504	176.1273	37.5300	63	0	0 
01831.687	0.3823	-0.0728	0.2292	1.1597	35.8887	-2.0752	-2.8894	-14.1010	176.0944	37.4800	63	0	0 
01831.691	-0.1042	0.0112	0.0913	2.8076	46.3867	-0.7935	-2.8400	-13.7000	176.0669	37.4800	63	0	0 
01831.699	-0.1042	0.0112	0.0913	2.8076	46.3867	-0.7935	-2.7960	-13.2935	176.0394	37.4100	65	0	0 
01831.699	-0.1042	0.0112	0.0913	2.8076	46.3867	-0.7935	-2.7521	-12.8925	176.0175	37.4100	66	0	0 
01831.705	-0.1042	0.0112	0.0913	2.8076	46.3867	-0.7935	-2.7081	-12.4915	175.9900	37.4100	66	0	0 
01831.714	-0.1042	0.0112	0.0913	2.8076	46.3867	-0.7935	-2.6587	-12.0959	175.9680	37.4100	66	0	0 
01831.714	-0.1042	0.0112	0.0913	2.8076	46.3867	-0.7935	-2.6147	-11.6949	175.9460	37.4900	67	0	0 
01831.747	-0.1042	0.0112	0.0913	2.8076	46.3867	-0.7935	-2.5763	-11.2994	175.9241	37.4900	68	0	0 
01831.749	-0.1042	0.0112	0.0913	2.8076	46.3867	-0.7935	-2.5323	-10.8984	175.8966	37.5000	68	0	0 
01831.749	-0.3684	0.0623	0.0164	4.5776	52.8564	1.8921	-2.3291	-10.4480	175.7483	37.5000	69	0	0 
01831.754	-0.3684	0.0623	0.0164	4.5776	52.8564	1.8921	-2.1259	-9.9921	175.6000	37.5300	69	0	0 
01831.756	-0.3684	0.0623	0.0164	4.5776	52.8564	1.8921	-1.9226	-9.5361	175.4517	37.5300	70	0	0 
01831.756	-0.3684	0.0623	0.0164	4.5776	52.8564	1.8921	-1.7249	-9.0802	175.3088	37.5300	70	0	0 
01831.759	-0.3684	0.0623	0.0164	4.5776	52.8564	1.8921	-1.5271	-8.6298	175.1660	37.4600	71	0	0 
01831.762	-0.3684	0.0623	0.0164	4.5776	52.8564	1.8921	-1.3293	-8.1738	175.0287	37.4600	71	0	0 
01831.762	-0.3684	0.0623	0.0164	4.5776	52.8564	1.8921	-1.1371	-7.7234	174.8914	37.4500	70	0	0 
01831.764	-0.3684	0.0623	0.0164	4.5776	52.8564	1.8921	-0.9393	-7.2675	174.7595	37.4500	70	0	0 
01831.772	-0.4519	0.0864	-0.0010	5.9204	54.7485	5.6152	-0.7141	-6.8280	174.6222	37.4800	69	0	0 
01831.779	-0.4519	0.0864	-0.0010	5.9204	54.7485	5.6152	-0.4889	-6.3885	174.4904	37.4800	69	0	0 
01831.779	-0.4519	0.0864	-0.0010	5.9204	54.7485	5.6152	-0.2637	-5.9436	174.3585	37.4300	68	0	0 
01831.796	-0.4519	0.0864	-0.0010	5.9204	54.7485	5.6152	-0.0439	-5.5042	174.2267	37.4300	68	0	0 
01831.799	-0.4519	0.0864	-0.0010	5.9204	54.7485	5.6152	0.1758	-5.0647	174.1003	37.4600	68	0	0 
01831.799	-0.4519	0.0864	-0.0010	5.9204	54.7485	5.6152	0.3955	-4.6252	173.9795	37.4600	67	0	0 
01831.801	-0.4519	0.0864	-0.0010	5.9204	54.7485	5.6152	0.6152	-4.1858	173.8531	37.4600	68	0	0 
01831.811	-0.4519	0.0864	-0.0010	5.9204	54.7485	5.6152	0.8295	-3.7463	173.7378	37.4600	68	0	0 
01831.811	-0.5869	0.2124	0.1836	7.0190	52.7954	9.8267	0.9833	-3.3124	173.7213	37.4300	68	0	0 
01831.815	-0.5869	0.2124	0.1836	7.0190	52.7954	9.8267	1.1316	-2.8729	173.7103	37.4300	68	0	0 
01831.821	-0.5869	0.2124	0.1836	7.0190	52.7954	9.8267	1.2799	-2.4390	173.6993	37.4600	67	0	0 
01831.821	-0.5869	0.2124	0.1836	7.0190	52.7954	9.8267	1.4282	-2.0050	173.6938	37.4600	66	0	0 
01831.849	-0.5869	0.2124	0.1836	7.0190	52.7954	9.8267	1.5765	-1.5710	173.6829	37.4600	64	0	0 
01831.851	-0.5869	0.2124	0.1836	7.0190	52.7954	9.8267	1.7249	-1.1371	173.6774	37.4300	62	0	0 
01831.851	-0.5869	0.2124	0.1836	7.0190	52.7954	9.8267	1.8732	-0.7031	173.6719	37.4300	60	0	0 
01831.851	-0.5869	0.2124	0.1836	7.0190	52.7954	9.8267	2.0215	-0.2747	173.6719	37.5100	57	0	0 
01831.851	-0.4675	0.2263	0.2173	7.1411	39.7339	14.2822	2.1698	0.0659	173.6993	37.5100	54	0	0 
01831.851	-0.4675	0.2263	0.2173	7.1411	39.7339	14.2822	2.3181	0.4120	173.7323	37.4600	50	0	0 
01831.859	-0.4675	0.2263	0.2173	7.1411	39.7339	14.2822	2.4609	0.7526	173.7653	37.4600	48	0	0 
01831.865	-0.4675	0.2263	0.2173	7.1411	39.7339	14.2822	2.6093	1.0931	173.7982	37.4000	45	0	0 
01831.884	-0.4675	0.2263	0.2173	7.1411	39.7339	14.2822	2.7576	1.4337	173.8312	37.4000	44	0	0 
01831.884	-0.4675	0.2263	0.2173	7.1411	39.7339	14.2822	2.9004	1.7743	173.8696	37.4300	42	0	0 
01831.900	-0.4675	0.2263	0.2173	7.1411	39.7339	14.2822	3.0487	2.1149	173.9026	37.4300	41	0	0 
01831.919	-0.4675	0.2263	0.2173	7.1411	39.7339	14.2822	3.1970	2.4554	173.9410	37.4700	41	0	0 
01831.919	-0.4253	0.3127	0.3884	5.1880	10.3760	18.0054	3.3234	2.6038	174.0125	37.4700	41	0	0 
01831.922	-0.4253	0.3127	0.3884	5.1880	10.3760	18.0054	3.4497	2.7521	174.0839	37.4200	41	0	0 
01831.927	-0.4253	0.3127	0.3884	5.1880	10.3760	18.0054	3.5760	2.9004	174.1553	37.4200	40	0	0 
01831.927	-0.4253	0.3127	0.3884	5.1880	10.3760	18.0054	3.7024	3.0542	174.2267	37.4700	40	0	0 
01831.929	-0.4253	0.3127	0.3884	5.1880	10.3760	18.0054	3.8287	3.2025	174.2981	37.4700	40	0	0 
01831.932	-0.4253	0.3127	0.3884	5.1880	10.3760	18.0054	3.9551	3.3453	174.3695	37.4700	40	0	0 
01831.932	-0.4253	0.3127	0.3884	5.1880	10.3760	18.0054	4.0814	3.4937	174.4464	37.5200	41	0	0 
01831.936	-0.4253	0.3127	0.3884	5.1880	10.3760	18.0054	4.2078	3.6420	174.5178	37.5200	43	0	0 
01831.938	-0.4111	0.2886	0.4944	1.5259	-20.2637	19.1650	4.2957	3.6200	174.5947	37.4400	44	0	0 
01831.940	-0.4111	0.2886	0.4944	1.5259	-20.2637	19.1650	4.3781	3.6035	174.6716	37.4400	45	0	0 
01831.940	-0.4111	0.2886	0.4944	1.5259	-20.2637	19.1650	4.4659	3.5815	174.7485	37.4400	47	0	0 
01831.954	-0.4111	0.2886	0.4944	1.5259	-20.2637	19.1650	4.5483	3.5596	174.8254	37.4400	48	0	0 
01831.957	-0.4111	0.2886	0.4944	1.5259	-20.2637	19.1650	4.6362	3.5431	174.9023	37.5000	49	0	0 
01831.957	-0.4111	0.2886	0.4944	1.5259	-20.2637	19.1650	4.7186	3.5211	174.9792	37.5000	50	0	0 
01831.984	-0.4111	0.2886	0.4944	1.5259	-20.2637	19.1650	4.8010	3.5046	175.0507	37.4500	51	0	0 
01831.987	-0.4111	0.2886	0.4944	1.5259	-20.2637	19.1650	4.8889	3.4827	175.1276	37.4500	51	0	0 
01831.987	-0.2537	0.2124	0.4600	-2.3193	-38.8794	16.8457	4.9384	3.3453	175.1935	37.4400	50	0	0 
01831.989	-0.2537	0.2124	0.4600	-2.3193	-38.8794	16.8457	4.9878	3.2080	175.2539	37.4400	49	0	0 
01831.992	-0.2537	0.2124	0.4600	-2.3193	-38.8794	16.8457	5.0372	3.0707	175.3198	37.4800	50	0	0 
01831.992	-0.2537	0.2124	0.4600	-2.3193	-38.8794	16.8457	5.0867	2.9333	175.3857	37.4800	50	0	0 
01831.996	-0.2537	0.2124	0.4600	-2.3193	-38.8794	16.8457	5.1361	2.7960	175.4462	37.4800	50	0	0 
01831.999	-0.2537	0.2124	0.4600	-2.3193	-38.8794	16.8457	5.1855	2.6642	175.5066	37.4400	50	0	0 
01831.999	-0.2537	0.2124	0.4600	-2.3193	-38.8794	16.8457	5.2350	2.5269	175.5725	37.4400	50	0	0 
01832.003	-0.2537	0.2124	0.4600	-2.3193	-38.8794	16.8457	5.2844	2.3895	175.6329	37.5000	49	0	0 
01832.016	-0.2874	0.1370	0.4814	-4.2725	-39.6118	12.2070	5.2954	2.2632	175.6714	37.5000	48	0	0 
01832.016	-0.2874	0.1370	0.4814	-4.2725	-39.6118	12.2070	5.3064	2.1368	175.7153	37.4500	48	0	0 
01832.021	-0.2874	0.1370	0.4814	-4.2725	-39.6118	12.2070	5.3174	2.0105	175.7593	37.4500	48	0	0 
01832.030	-0.2874	0.1370	0.4814	-4.2725	-39.6118	12.2070	5.3284	1.8842	175.7977	37.4200	47	0	0 
01832.037	-0.2874	0.1370	0.4814	-4.2725	-39.6118	12.2070	5.3394	1.7633	175.8417	37.4200	46	0	0 
01832.037	-0.2874	0.1370	0.4814	-4.2725	-39.6118	12.2070	5.3503	1.6370	175.8801	37.5300	46	0	0 
01832.039	-0.2874	0.1370	0.4814	-4.2725	-39.6118	12.2070	5.3558	1.5106	175.9241	37.5300	45	0	0 
01832.075	-0.2874	0.1370	0.4814	-4.2725	-39.6118	12.2070	5.3668	1.3898	175.9625	37.5000	44	0	0 
01832.075	-0.2366	0.0671	0.3899	-2.3804	-21.4233	7.0801	5.3723	1.3568	175.9900	37.5000	43	0	0 
01832.077	-0.2366	0.0671	0.3899	-2.3804	-21.4233	7.0801	5.3723	1.3293	176.0175	37.5100	42	0	0 
01832.077	-0.2366	0.0671	0.3899	-2.3804	-21.4233	7.0801	5.3723	1.3019	176.0449	37.5100	41	0	0 
01832.077	-0.2366	0.0671	0.3899	-2.3804	-21.4233	7.0801	5.3778	1.2744	176.0724	37.4100	42	0	0 
01832.077	-0.2366	0.0671	0.3899	-2.3804	-21.4233	7.0801	5.3778	1.2469	176.0999	37.4100	42	0	0 
01832.079	-0.2366	0.0671	0.3899	-2.3804	-21.4233	7.0801	5.3778	1.2195	176.1273	37.4100	41	0	0 
01832.079	-0.2366	0.0671	0.3899	-2.3804	-21.4233	7.0801	5.3833	1.1920	176.1548	37.4800	40	0	0 
01832.097	-0.2366	0.0671	0.3899	-2.3804	-21.4233	7.0801	5.3833	1.1646	176.1823	37.4800	41	0	0 
01832.105	-0.2915	0.1338	0.3967	2.5024	-2.3193	4.0894	5.4327	1.2415	176.1987	37.5100	41	0	0 
01832.105	-0.2915	0.1338	0.3967	2.5024	-2.3193	4.0894	5.4822	1.3239	176.2097	37.5100	40	0	0 
01832.111	-0.2915	0.1338	0.3967	2.5024	-2.3193	4.0894	5.5371	1.4008	176.2207	37.3900	40	0	0 
01832.117	-0.2915	0.1338	0.3967	2.5024	-2.3193	4.0894	5.5865	1.4777	176.2372	37.3900	40	0	0 
01832.123	-0.2915	0.1338	0.3967	2.5024	-2.3193	4.0894	5.6360	1.5601	176.2482	37.5000	39	0	0 
01832.123	-0.2915	0.1338	0.3967	2.5024	-2.3193	4.0894	5.6854	1.6370	176.2646	37.5000	39	0	0 
01832.129	-0.2915	0.1338	0.3967	2.5024	-2.3193	4.0894	5.7349	1.7139	176.2756	37.4300	39	0	0 
01832.142	-0.2915	0.1338	0.3967	2.5024	-2.3193	4.0894	5.7898	1.7963	176.2921	37.4300	37	0	0 
01832.142	-0.2534	0.0249	0.5645	5.3711	1.9531	3.4790	5.8063	1.8622	176.3141	37.5000	36	0	0 
01832.147	-0.2534	0.0249	0.5645	5.3711	1.9531	3.4790	5.8228	1.9281	176.3416	37.5000	36	0	0 
01832.160	-0.2534	0.0249	0.5645	5.3711	1.9531	3.4790	5.8447	1.9995	176.3635	37.4700	37	0	0 
01832.160	-0.2534	0.0249	0.5645	5.3711	1.9531	3.4790	5.8612	2.0654	176.3910	37.4700	37	0	0 
01832.168	-0.2534	0.0249	0.5645	5.3711	1.9531	3.4790	5.8777	2.1313	176.4130	37.4900	36	0	0 
01832.173	-0.2534	0.0249	0.5645	5.3711	1.9531	3.4790	5.8997	2.1973	176.4404	37.4900	36	0	0 
01832.173	-0.2534	0.0249	0.5645	5.3711	1.9531	3.4790	5.9161	2.2632	176.4624	37.4900	36	0	0 
01832.181	-0.2534	0.0249	0.5645	5.3711	1.9531	3.4790	5.9326	2.3346	176.4844	37.4900	36	0	0 
01832.209	-0.3691	0.1199	0.7048	4.0283	-3.5400	3.1738	5.9656	2.3785	176.5009	37.4900	36	0	0 
01832.209	-0.3691	0.1199	0.7048	4.0283	-3.5400	3.1738	5.9985	2.4280	176.5173	37.5100	37	0	0 
01832.215	-0.3691	0.1199	0.7048	4.0283	-3.5400	3.1738	6.0315	2.4774	176.5338	37.5100	38	0	0 
01832.222	-0.3691	0.1199	0.7048	4.0283	-3.5400	3.1738	6.0645	2.5269	176.5503	37.4600	37	0	0 
01832.222	-0.3691	0.1199	0.7048	4.0283	-3.5400	3.1738	6.0974	2.5763	176.5668	37.4600	37	0	0 
01832.227	-0.3691	0.1199	0.7048	4.0283	-3.5400	3.1738	6.1249	2.6202	176.5833	37.4900	38	0	0 
01832.249	-0.3691	0.1199	0.7048	4.0283	-3.5400	3.1738	6.1578	2.6697	176.5997	37.4900	38	0	0 
01832.251	-0.3691	0.1199	0.7048	4.0283	-3.5400	3.1738	6.1908	2.7191	176.6107	37.5300	38	0	0 
01832.251	-0.4058	0.0850	0.9275	1.2817	-10.0098	1.7090	6.1963	2.7246	176.6217	37.5300	38	0	0 
01832.251	-0.4058	0.0850	0.9275	1.2817	-10.0098	1.7090	6.2018	2.7301	176.6272	37.4800	39	0	0 
01832.254	-0.4058	0.0850	0.9275	1.2817	-10.0098	1.7090	6.2073	2.7356	176.6327	37.4800	40	0	0 
01832.254	-0.4058	0.0850	0.9275	1.2817	-10.0098	1.7090	6.2073	2.7411	176.6437	37.4700	40	0	0 
01832.263	-0.4058	0.0850	0.9275	1.2817	-10.0098	1.7090	6.2128	2.7411	176.6492	37.4700	41	0	0 
01832.269	-0.4058	0.0850	0.9275	1.2817	-10.0098	1.7090	6.2183	2.7466	176.6547	37.4400	40	0	0 
01832.269	-0.4058	0.0850	0.9275	1.2817	-10.0098	1.7090	6.2238	2.7521	176.6656	37.4400	40	0	0 
01832.277	-0.4058	0.0850	0.9275	1.2817	-10.0098	1.7090	6.2292	2.7576	176.6711	37.4400	39	0	0 
01832.284	-0.3921	0.1636	0.9917	-1.8311	-14.4043	-1.7090	6.2292	2.7356	176.6547	37.4500	39	0	0 
01832.284	-0.3921	0.1636	0.9917	-1.8311	-14.4043	-1.7090	6.2292	2.7136	176.6437	37.4500	39	0	0 
01832.288	-0.3921	0.1636	0.9917	-1.8311	-14.4043	-1.7090	6.2292	2.6971	176.6272	37.4300	40	0	0 
01832.298	-0.3921	0.1636	0.9917	-1.8311	-14.4043	-1.7090	6.2292	2.6752	176.6162	37.4300	40	0	0 
01832.298	-0.3921	0.1636	0.9917	-1.8311	-14.4043	-1.7090	6.2292	2.6532	176.5997	37.4100	41	0	0 
01832.303	-0.3921	0.1636	0.9917	-1.8311	-14.4043	-1.7090	6.2292	2.6312	176.5887	37.4100	41	0	0 
01832.317	-0.3921	0.1636	0.9917	-1.8311	-14.4043	-1.7090	6.2292	2.6093	176.5723	37.4600	41	0	0 
01832.317	-0.3921	0.1636	0.9917	-1.8311	-14.4043	-1.7090	6.2292	2.5873	176.5613	37.4600	42	0	0 
01832.317	-0.4426	0.1541	1.0076	-4.2725	-14.5874	-6.8970	6.2183	2.5763	176.5228	37.4600	42	0	0 
01832.325	-0.4426	0.1541	1.0076	-4.2725	-14.5874	-6.8970	6.2018	2.5653	176.4789	37.4600	42	0	0 
01832.333	-0.4426	0.1541	1.0076	-4.2725	-14.5874	-6.8970	6.1853	2.5488	176.4404	37.4300	42	0	0 
01832.333	-0.4426	0.1541	1.0076	-4.2725	-14.5874	-6.8970	6.1688	2.5378	176.4020	37.4300	41	0	0 
01832.333	-0.4426	0.1541	1.0076	-4.2725	-14.5874	-6.8970	6.1578	2.5269	176.3635	37.4500	41	0	0 
01832.345	-0.4426	0.1541	1.0076	-4.2725	-14.5874	-6.8970	6.1414	2.5159	176.3251	37.4500	40	0	0 
01832.345	-0.4426	0.1541	1.0076	-4.2725	-14.5874	-6.8970	6.1249	2.4994	176.2866	37.4500	41	0	0 
01832.345	-0.4426	0.1541	1.0076	-4.2725	-14.5874	-6.8970	6.1139	2.4884	176.2482	37.5300	41	0	0 
01832.387	-0.4185	0.1946	1.0212	-5.6763	-12.0239	-12.0850	6.0974	2.4884	176.1823	37.5300	41	0	0 
01832.387	-0.4185	0.1946	1.0212	-5.6763	-12.0239	-12.0850	6.0809	2.4829	176.1218	37.4800	41	0	0 
01832.387	-0.4185	0.1946	1.0212	-5.6763	-12.0239	-12.0850	6.0645	2.4829	176.0559	37.4800	42	0	0 
01832.393	-0.4185	0.1946	1.0212	-5.6763	-12.0239	-12.0850	6.0480	2.4829	175.9955	37.4100	43	0	0 
01832.393	-0.4185	0.1946	1.0212	-5.6763	-12.0239	-12.0850	6.0315	2.4829	175.9296	37.4100	43	0	0 
01832.409	-0.4185	0.1946	1.0212	-5.6763	-12.0239	-12.0850	6.0150	2.4774	175.8691	37.4400	42	0	0 
01832.409	-0.4185	0.1946	1.0212	-5.6763	-12.0239	-12.0850	5.9985	2.4774	175.8087	37.4400	43	0	0 
01832.411	-0.4185	0.1946	1.0212	-5.6763	-12.0239	-12.0850	5.9821	2.4774	175.7428	37.4600	43	0	0 
01832.415	-0.4646	0.1013	1.0552	-7.8735	-10.1318	-15.5029	5.9381	2.4884	175.6659	37.4600	42	0	0 
01832.422	-0.4646	0.1013	1.0552	-7.8735	-10.1318	-15.5029	5.8942	2.5049	175.5945	37.4600	42	0	0 
01832.426	-0.4646	0.1013	1.0552	-7.8735	-10.1318	-15.5029	5.8502	2.5214	175.5176	37.4600	43	0	0 
01832.426	-0.4646	0.1013	1.0552	-7.8735	-10.1318	-15.5029	5.8063	2.5323	175.4407	37.4600	44	0	0 
01832.436	-0.4646	0.1013	1.0552	-7.8735	-10.1318	-15.5029	5.7623	2.5488	175.3693	37.4600	44	0	0 
01832.447	-0.4646	0.1013	1.0552	-7.8735	-10.1318	-15.5029	5.7184	2.5598	175.2924	37.4500	44	0	0 
01832.447	-0.4646	0.1013	1.0552	-7.8735	-10.1318	-15.5029	5.6744	2.5763	175.2209	37.4500	44	0	0 
01832.479	-0.4646	0.1013	1.0552	-7.8735	-10.1318	-15.5029	5.6305	2.5873	175.1440	37.4500	44	0	0 
01832.481	-0.4438	0.0264	1.0610	-10.3760	-7.9956	-16.1133	5.5646	2.6093	175.0726	37.4500	44	0	0 
01832.481	-0.4438	0.0264	1.0610	-10.3760	-7.9956	-16.1133	5.4987	2.6312	174.9957	37.4500	44	0	0 
01832.481	-0.4438	0.0264	1.0610	-10.3760	-7.9956	-16.1133	5.4272	2.6532	174.9243	37.5100	44	0	0 
01832.481	-0.4438	0.0264	1.0610	-10.3760	-7.9956	-16.1133	5.3613	2.6752	174.8529	37.5100	45	0	0 
01832.481	-0.4438	0.0264	1.0610	-10.3760	-7.9956	-16.1133	5.2954	2.6917	174.7760	37.4700	45	0	0 
01832.481	-0.4438	0.0264	1.0610	-10.3760	-7.9956	-16.1133	5.2295	2.7136	174.7046	37.4700	44	0	0 
01832.485	-0.4438	0.0264	1.0610	-10.3760	-7.9956	-16.1133	5.1636	2.7356	174.6332	37.4100	44	0	0 
01832.485	-0.4438	0.0264	1.0610	-10.3760	-7.9956	-16.1133	5.0922	2.7576	174.5618	37.4100	44	0	0 
01832.491	-0.3892	-0.0112	1.0488	-10.2539	-5.2490	-13.5498	5.0208	2.7795	174.5013	37.4600	44	0	0 
01832.509	-0.3892	-0.0112	1.0488	-10.2539	-5.2490	-13.5498	4.9548	2.8070	174.4464	37.4600	44	0	0 
01832.516	-0.3892	-0.0112	1.0488	-10.2539	-5.2490	-13.5498	4.8834	2.8290	174.3860	37.5000	45	0	0 
01832.516	-0.3892	-0.0112	1.0488	-10.2539	-5.2490	-13.5498	4.8120	2.8564	174.3311	37.5000	45	0	0 
01832.523	-0.3892	-0.0112	1.0488	-10.2539	-5.2490	-13.5498	4.7406	2.8839	174.2761	37.4800	45	0	0 
01832.533	-0.3892	-0.0112	1.0488	-10.2539	-5.2490	-13.5498	4.6692	2.9059	174.2157	37.4800	45	0	0 
01832.533	-0.3892	-0.0112	1.0488	-10.2539	-5.2490	-13.5498	4.5978	2.9279	174.1608	37.4200	45	0	0 
01832.533	-0.3892	-0.0112	1.0488	-10.2539	-5.2490	-13.5498	4.5319	2.9553	174.1058	37.4200	46	0	0 
01832.546	-0.2832	-0.0344	1.0295	-7.3242	-2.6855	-8.9722	4.4714	2.9773	174.0729	37.4200	46	0	0 
01832.546	-0.2832	-0.0344	1.0295	-7.3242	-2.6855	-8.9722	4.4165	2.9938	174.0399	37.4700	45	0	0 
01832.546	-0.2832	-0.0344	1.0295	-7.3242	-2.6855	-8.9722	4.3561	3.0157	174.0070	37.4700	45	0	0 
01832.550	-0.2832	-0.0344	1.0295	-7.3242	-2.6855	-8.9722	4.3011	3.0322	173.9740	37.4400	44	0	0 
01832.550	-0.2832	-0.0344	1.0295	-7.3242	-2.6855	-8.9722	4.2462	3.0542	173.9410	37.4400	44	0	0 
01832.560	-0.2832	-0.0344	1.0295	-7.3242	-2.6855	-8.9722	4.1858	3.0762	173.9081	37.4600	45	0	0 
01832.563	-0.2832	-0.0344	1.0295	-7.3242	-2.6855	-8.9722	4.1309	3.0927	173.8751	37.4600	45	0	0 
01832.563	-0.2832	-0.0344	1.0295	-7.3242	-2.6855	-8.9722	4.0759	3.1146	173.8422	37.4600	45	0	0 
01832.567	-0.1533	-0.0334	1.0122	-3.7231	-0.8545	-4.2725	4.0375	3.1201	173.8367	37.4600	45	0	0 
01832.570	-0.1533	-0.0334	1.0122	-3.7231	-0.8545	-4.2725	3.9990	3.1256	173.8257	37.4300	45	0	0 
01832.575	-0.1533	-0.0334	1.0122	-3.7231	-0.8545	-4.2725	3.9661	3.1311	173.8147	37.4300	45	0	0 
01832.575	-0.1533	-0.0334	1.0122	-3.7231	-0.8545	-4.2725	3.9276	3.1366	173.8092	37.5000	45	0	0 
01832.577	-0.1533	-0.0334	1.0122	-3.7231	-0.8545	-4.2725	3.8947	3.1476	173.7982	37.5000	44	0	0 
01832.579	-0.1533	-0.0334	1.0122	-3.7231	-0.8545	-4.2725	3.8562	3.1531	173.7872	37.4600	44	0	0 
01832.579	-0.1533	-0.0334	1.0122	-3.7231	-0.8545	-4.2725	3.8232	3.1586	173.7817	37.4600	43	0	0 
01832.581	-0.1533	-0.0334	1.0122	-3.7231	-0.8545	-4.2725	3.7848	3.1641	173.7708	37.4800	43	0	0 
01832.585	-0.0488	-0.0249	0.9998	-0.6714	0.0610	-0.6714	3.7683	3.1586	173.7817	37.4800	43	0	0 
01832.585	-0.0488	-0.0249	0.9998	-0.6714	0.0610	-0.6714	3.7518	3.1476	173.7872	37.4800	43	0	0 
01832.588	-0.0488	-0.0249	0.9998	-0.6714	0.0610	-0.6714	3.7354	3.1421	173.7982	37.4700	42	0	0 
01832.590	-0.0488	-0.0249	0.9998	-0.6714	0.0610	-0.6714	3.7189	3.1366	173.8037	37.4700	42	0	0 
01832.590	-0.0488	-0.0249	0.9998	-0.6714	0.0610	-0.6714	3.6969	3.1256	173.8147	37.4900	42	0	0 
01832.593	-0.0488	-0.0249	0.9998	-0.6714	0.0610	-0.6714	3.6804	3.1201	173.8202	37.4900	41	0	0 
01832.604	-0.0488	-0.0249	0.9998	-0.6714	0.0610	-0.6714	3.6639	3.1091	173.8312	37.5200	41	0	0 
01832.610	-0.0488	-0.0249	0.9998	-0.6714	0.0610	-0.6714	3.6475	3.1036	173.8367	37.5200	41	0	0 
01832.610	0.0142	-0.0161	0.9932	1.1597	0.4883	1.4038	3.6420	3.0872	173.8586	37.4400	42	0	0 
01832.613	0.0142	-0.0161	0.9932	1.1597	0.4883	1.4038	3.6365	3.0707	173.8751	37.4400	42	0	0 
01832.628	0.0142	-0.0161	0.9932	1.1597	0.4883	1.4038	3.6310	3.0542	173.8916	37.4600	43	0	0 
01832.628	0.0142	-0.0161	0.9932	1.1597	0.4883	1.4038	3.6255	3.0377	173.9081	37.4600	43	0	0 
01832.653	0.0142	-0.0161	0.9932	1.1597	0.4883	1.4038	3.6200	3.0212	173.9301	37.5300	43	0	0 
01832.655	0.0142	-0.0161	0.9932	1.1597	0.4883	1.4038	3.6145	3.0048	173.9465	37.5300	43	0	0 
01832.655	0.0142	-0.0161	0.9932	1.1597	0.4883	1.4038	3.6090	2.9883	173.9630	37.4400	43	0	0 
01832.655	0.0142	-0.0161	0.9932	1.1597	0.4883	1.4038	3.6035	2.9718	173.9850	37.4400	44	0	0 
01832.655	0.0405	-0.0083	0.9912	1.8311	0.6104	2.1362	3.6035	2.9498	174.0015	37.4400	45	0	0 
01832.655	0.0405	-0.0083	0.9912	1.8311	0.6104	2.1362	3.6035	2.9279	174.0234	37.4200	45	0	0 
01832.662	0.0405	-0.0083	0.9912	1.8311	0.6104	2.1362	3.6035	2.9114	174.0454	37.4200	46	0	0 
01832.668	0.0405	-0.0083	0.9912	1.8311	0.6104	2.1362	3.6035	2.8894	174.0674	37.4600	46	0	0 
01832.668	0.0405	-0.0083	0.9912	1.8311	0.6104	2.1362	3.6035	2.8674	174.0894	37.4600	45	0	0 
01832.674	0.0405	-0.0083	0.9912	1.8311	0.6104	2.1362	3.6035	2.8510	174.1113	37.4800	45	0	0 
01832.683	0.0405	-0.0083	0.9912	1.8311	0.6104	2.1362	3.6035	2.8290	174.1333	37.4800	45	0	0 
01832.689	0.0405	-0.0083	0.9912	1.8311	0.6104	2.1362	3.6035	2.8070	174.1498	37.4100	45	0	0 
01832.689	0.0408	-0.0029	0.9924	1.7090	0.5493	2.0142	3.6035	2.7905	174.1718	37.4100	45	0	0 
01832.700	0.0408	-0.0029	0.9924	1.7090	0.5493	2.0142	3.6035	2.7686	174.1937	37.4300	45	0	0 
01832.703	0.0408	-0.0029	0.9924	1.7090	0.5493	2.0142	3.6035	2.7466	174.2102	37.4300	44	0	0 
01832.703	0.0408	-0.0029	0.9924	1.7090	0.5493	2.0142	3.6035	2.7301	174.2322	37.4400	44	0	0 
01832.709	0.0408	-0.0029	0.9924	1.7090	0.5493	2.0142	3.6035	2.7081	174.2542	37.4400	45	0	0 
01832.721	0.0408	-0.0029	0.9924	1.7090	0.5493	2.0142	3.6035	2.6862	174.2706	37.5000	45	0	0 
01832.721	0.0408	-0.0029	0.9924	1.7090	0.5493	2.0142	3.6035	2.6697	174.2926	37.5000	46	0	0 
01832.723	0.0408	-0.0029	0.9924	1.7090	0.5493	2.0142	3.6035	2.6477	174.3146	37.4700	47	0	0 
01832.735	0.0269	-0.0002	0.9949	1.1597	0.3662	1.4038	3.5980	2.6312	174.3311	37.4700	47	0	0 
01832.735	0.0269	-0.0002	0.9949	1.1597	0.3662	1.4038	3.5980	2.6147	174.3475	37.4700	47	0	0 
01832.739	0.0269	-0.0002	0.9949	1.1597	0.3662	1.4038	3.5925	2.5928	174.3640	37.4700	47	0	0 
01832.748	0.0269	-0.0002	0.9949	1.1597	0.3662	1.4038	3.5925	2.5763	174.3805	37.4700	47	0	0 
01832.748	0.0269	-0.0002	0.9949	1.1597	0.3662	1.4038	3.5870	2.5598	174.3970	37.5100	47	0	0 
01832.752	0.0269	-0.0002	0.9949	1.1597	0.3662	1.4038	3.5870	2.5433	174.4135	37.5100	47	0	0 
01832.763	0.0269	-0.0002	0.9949	1.1597	0.3662	1.4038	3.5815	2.5214	174.4299	37.4500	46	0	0 
01832.767	0.0269	-0.0002	0.9949	1.1597	0.3662	1.4038	3.5815	2.5049	174.4464	37.4500	46	0	0 
01832.767	0.0090	0.0002	0.9973	0.6104	0.1831	0.7324	3.5760	2.4884	174.4629	37.4800	46	0	0 
01832.782	0.0090	0.0002	0.9973	0.6104	0.1831	0.7324	3.5706	2.4774	174.4739	37.4800	46	0	0 
01832.784	0.0090	0.0002	0.9973	0.6104	0.1831	0.7324	3.5651	2.4609	174.4849	37.4300	46	0	0 
01832.784	0.0090	0.0002	0.9973	0.6104	0.1831	0.7324	3.5596	2.4445	174.5013	37.4300	45	0	0 
01832.788	0.0090	0.0002	0.9973	0.6104	0.1831	0.7324	3.5541	2.4280	174.5123	37.4600	45	0	0 
01832.802	0.0090	0.0002	0.9973	0.6104	0.1831	0.7324	3.5486	2.4170	174.5233	37.4600	45	0	0 
01832.802	0.0090	0.0002	0.9973	0.6104	0.1831	0.7324	3.5431	2.4005	174.5398	37.4700	45	0	0 
01832.825	0.0090	0.0002	0.9973	0.6104	0.1831	0.7324	3.5376	2.3840	174.5508	37.4700	44	0	0 
01832.827	-0.0063	-0.0002	0.9990	0.1221	0.0000	0.1831	3.5266	2.3730	174.5618	37.4800	44	0	0 
01832.829	-0.0063	-0.0002	0.9990	0.1221	0.0000	0.1831	3.5211	2.3621	174.5728	37.4800	43	0	0 
01832.829	-0.0063	-0.0002	0.9990	0.1221	0.0000	0.1831	3.5101	2.3456	174.5837	37.4800	43	0	0 
01832.831	-0.0063	-0.0002	0.9990	0.1221	0.0000	0.1831	3.5046	2.3346	174.5947	37.4200	44	0	0 
01832.833	-0.0063	-0.0002	0.9990	0.1221	0.0000	0.1831	3.4991	2.3236	174.6002	37.4200	44	0	0 
01832.833	-0.0063	-0.0002	0.9990	0.1221	0.0000	0.1831	3.4882	2.3071	174.6112	37.4600	45	0	0 
01832.845	-0.0063	-0.0002	0.9990	0.1221	0.0000	0.1831	3.4827	2.2961	174.6222	37.4600	45	0	0 
01832.845	-0.0063	-0.0002	0.9990	0.1221	0.0000	0.1831	3.4717	2.2852	174.6332	37.5300	45	0	0 
01832.847	-0.0166	-0.0012	1.0002	-0.1221	-0.0610	-0.1221	3.4607	2.2742	174.6442	37.5300	45	0	0 
01832.880	-0.0166	-0.0012	1.0002	-0.1221	-0.0610	-0.1221	3.4552	2.2632	174.6497	37.5100	46	0	0 
01832.882	-0.0166	-0.0012	1.0002	-0.1221	-0.0610	-0.1221	3.4442	2.2522	174.6606	37.5100	45	0	0 
01832.882	-0.0166	-0.0012	1.0002	-0.1221	-0.0610	-0.1221	3.4332	2.2412	174.6661	37.4800	44	0	0 
01832.882	-0.0166	-0.0012	1.0002	-0.1221	-0.0610	-0.1221	3.4277	2.2302	174.6771	37.4800	44	0	0 
01832.882	-0.0166	-0.0012	1.0002	-0.1221	-0.0610	-0.1221	3.4167	2.2192	174.6826	37.4200	44	0	0 
01832.882	-0.0166	-0.0012	1.0002	-0.1221	-0.0610	-0.1221	3.4058	2.2083	174.6936	37.4200	45	0	0 
01832.890	-0.0166	-0.0012	1.0002	-0.1221	-0.0610	-0.1221	3.4003	2.1973	174.6991	37.4700	45	0	0 
01832.904	-0.0215	-0.0022	1.0005	-0.2441	-0.0610	-0.2441	3.3893	2.1863	174.7101	37.4700	46	0	0 
01832.904	-0.0215	-0.0022	1.0005	-0.2441	-0.0610	-0.2441	3.3783	2.1753	174.7156	37.4600	46	0	0 
01832.906	-0.0215	-0.0022	1.0005	-0.2441	-0.0610	-0.2441	3.3673	2.1643	174.7211	37.4600	46	0	0 
01832.908	-0.0215	-0.0022	1.0005	-0.2441	-0.0610	-0.2441	3.3563	2.1533	174.7321	37.4600	46	0	0 
01832.914	-0.0215	-0.0022	1.0005	-0.2441	-0.0610	-0.2441	3.3453	2.1478	174.7375	37.4600	46	0	0 
01832.914	-0.0215	-0.0022	1.0005	-0.2441	-0.0610	-0.2441	3.3398	2.1368	174.7485	37.4600	45	0	0 
01832.921	-0.0215	-0.0022	1.0005	-0.2441	-0.0610	-0.2441	3.3289	2.1259	174.7540	37.4400	45	0	0 
01832.928	-0.0215	-0.0022	1.0005	-0.2441	-0.0610	-0.2441	3.3179	2.1149	174.7595	37.4400	45	0	0 
01832.928	-0.0222	-0.0032	1.0005	-0.2441	-0.0610	-0.2441	3.3069	2.1094	174.7705	37.4200	46	0	0 
01832.936	-0.0222	-0.0032	1.0005	-0.2441	-0.0610	-0.2441	3.2959	2.0984	174.7760	37.4200	47	0	0 
01832.950	-0.0222	-0.0032	1.0005	-0.2441	-0.0610	-0.2441	3.2904	2.0874	174.7870	37.4600	47	0	0 
01832.950	-0.0222	-0.0032	1.0005	-0.2441	-0.0610	-0.2441	3.2794	2.0764	174.7925	37.4600	48	0	0 
01832.952	-0.0222	-0.0032	1.0005	-0.2441	-0.0610	-0.2441	3.2684	2.0709	174.7980	37.4500	48	0	0 
01832.958	-0.0222	-0.0032	1.0005	-0.2441	-0.0610	-0.2441	3.2574	2.0599	174.8090	37.4500	48	0	0 
01832.958	-0.0222	-0.0032	1.0005	-0.2441	-0.0610	-0.2441	3.2465	2.0490	174.8145	37.4600	49	0	0 
01832.964	-0.0222	-0.0032	1.0005	-0.2441	-0.0610	-0.2441	3.2410	2.0380	174.8199	37.4600	48	0	0 
01832.974	-0.0208	-0.0034	1.0000	-0.1831	-0.0610	-0.1831	3.2300	2.0325	174.8309	37.4500	48	0	0 
01832.974	-0.0208	-0.0034	1.0000	-0.1831	-0.0610	-0.1831	3.2190	2.0215	174.8364	37.4500	48	0	0 
01832.984	-0.0208	-0.0034	1.0000	-0.1831	-0.0610	-0.1831	3.2135	2.0105	174.8474	37.4500	47	0	0 
01832.986	-0.0208	-0.0034	1.0000	-0.1831	-0.0610	-0.1831	3.2025	2.0050	174.8529	37.5000	46	0	0 
01832.995	-0.0208	-0.0034	1.0000	-0.1831	-0.0610	-0.1831	3.1915	1.9940	174.8584	37.5000	45	0	0 
01832.995	-0.0208	-0.0034	1.0000	-0.1831	-0.0610	-0.1831	3.1805	1.9830	174.8694	37.4400	44	0	0 
01833.023	-0.0208	-0.0034	1.0000	-0.1831	-0.0610	-0.1831	3.1750	1.9720	174.8749	37.4400	44	0	0 
01833.031	-0.0208	-0.0034	1.0000	-0.1831	-0.0610	-0.1831	3.1641	1.9666	174.8804	37.5300	44	0	0 
01833.031	-0.0183	-0.0034	0.9993	-0.1221	0.0000	-0.1221	3.1531	1.9556	174.8914	37.5300	43	0	0 
01833.037	-0.0183	-0.0034	0.9993	-0.1221	0.0000	-0.1221	3.1476	1.9446	174.8969	37.5200	44	0	0 
01833.040	-0.0183	-0.0034	0.9993	-0.1221	0.0000	-0.1221	3.1366	1.9336	174.9078	37.5200	44	0	0 
01833.040	-0.0183	-0.0034	0.9993	-0.1221	0.0000	-0.1221	3.1311	1.9281	174.9133	37.4800	43	0	0 
01833.042	-0.0183	-0.0034	0.9993	-0.1221	0.0000	-0.1221	3.1201	1.9171	174.9243	37.4800	43	0	0 
01833.044	-0.0183	-0.0034	0.9993	-0.1221	0.0000	-0.1221	3.1091	1.9061	174.9298	37.4700	44	0	0 
01833.044	-0.0183	-0.0034	0.9993	-0.1221	0.0000	-0.1221	3.1036	1.9006	174.9353	37.4700	44	0	0 
01833.047	-0.0183	-0.0034	0.9993	-0.1221	0.0000	-0.1221	3.0927	1.8896	174.9463	37.5000	44	0	0 
01833.059	-0.0159	-0.0034	0.9988	-0.0610	0.0000	0.0000	3.0872	1.8787	174.9518	37.5000	45	0	0 
01833.063	-0.0159	-0.0034	0.9988	-0.0610	0.0000	0.0000	3.0762	1.8677	174.9628	37.5100	45	0	0 
01833.063	-0.0159	-0.0034	0.9988	-0.0610	0.0000	0.0000	3.0707	1.8622	174.9683	37.5100	45	0	0 
01833.065	-0.0159	-0.0034	0.9988	-0.0610	0.0000	0.0000	3.0597	1.8512	174.9792	37.5100	45	0	0 
01833.078	-0.0159	-0.0034	0.9988	-0.0610	0.0000	0.0000	3.0542	1.8402	174.9847	37.4200	46	0	0 
01833.078	-0.0159	-0.0034	0.9988	-0.0610	0.0000	0.0000	3.0432	1.8292	174.9957	37.4200	45	0	0 
01833.080	-0.0159	-0.0034	0.9988	-0.0610	0.0000	0.0000	3.0322	1.8237	175.0012	37.5400	44	0	0 
01833.111	-0.0159	-0.0034	0.9988	-0.0610	0.0000	0.0000	3.0267	1.8127	175.0122	37.5400	45	0	0 
01833.111	-0.0142	-0.0032	0.9988	0.0000	0.0000	0.0000	3.0212	1.8018	175.0177	37.4700	46	0	0 
01833.114	-0.0142	-0.0032	0.9988	0.0000	0.0000	0.0000	3.0103	1.7908	175.0287	37.4700	47	0	0 
01833.114	-0.0142	-0.0032	0.9988	0.0000	0.0000	0.0000	3.0048	1.7853	175.0342	37.5000	48	0	0 
01833.114	-0.0142	-0.0032	0.9988	0.0000	0.0000	0.0000	2.9938	1.7743	175.0452	37.5000	48	0	0 
01833.120	-0.0142	-0.0032	0.9988	0.0000	0.0000	0.0000	2.9883	1.7633	175.0507	37.5000	49	0	0 
01833.124	-0.0142	-0.0032	0.9988	0.0000	0.0000	0.0000	2.9773	1.7523	175.0562	37.5000	48	0	0 
01833.124	-0.0142	-0.0032	0.9988	0.0000	0.0000	0.0000	2.9718	1.7468	175.0671	37.4100	48	0	0 
01833.129	-0.0142	-0.0032	0.9988	0.0000	0.0000	0.0000	2.9663	1.7358	175.0726	37.4100	47	0	0 
01833.138	-0.0134	-0.0032	0.9985	0.0000	0.0000	0.0000	2.9553	1.7249	175.0836	37.4400	47	0	0 
01833.138	-0.0134	-0.0032	0.9985	0.0000	0.0000	0.0000	2.9498	1.7139	175.0891	37.4400	46	0	0 
01833.140	-0.0134	-0.0032	0.9985	0.0000	0.0000	0.0000	2.9388	1.7084	175.1001	37.4600	45	0	0 
01833.149	-0.0134	-0.0032	0.9985	0.0000	0.0000	0.0000	2.9333	1.6974	175.1056	37.4600	46	0	0 
01833.163	-0.0134	-0.0032	0.9985	0.0000	0.0000	0.0000	2.9279	1.6864	175.1111	37.4600	47	0	0 
01833.163	-0.0134	-0.0032	0.9985	0.0000	0.0000	0.0000	2.9169	1.6754	175.1221	37.4200	45	0	0 
01833.172	-0.0134	-0.0032	0.9985	0.0000	0.0000	0.0000	2.9114	1.6699	175.1276	37.4200	44	0	0 
01833.174	-0.0134	-0.0032	0.9985	0.0000	0.0000	0.0000	2.9059	1.6589	175.1385	37.4400	45	0	0 
01833.174	-0.0132	-0.0032	0.9988	0.0000	0.0000	0.0000	2.8949	1.6479	175.1440	37.4400	45	0	0 
01833.179	-0.0132	-0.0032	0.9988	0.0000	0.0000	0.0000	2.8894	1.6370	175.1495	37.4400	45	0	0 
01833.185	-0.0132	-0.0032	0.9988	0.0000	0.0000	0.0000	2.8784	1.6315	175.1605	37.4400	46	0	0 
01833.185	-0.0132	-0.0032	0.9988	0.0000	0.0000	0.0000	2.8729	1.6205	175.1660	37.5300	46	0	0 
01833.190	-0.0132	-0.0032	0.9988	0.0000	0.0000	0.0000	2.8674	1.6095	175.1770	37.5300	46	0	0 
01833.200	-0.0132	-0.0032	0.9988	0.0000	0.0000	0.0000	2.8564	1.6040	175.1825	37.4800	46	0	0 
01833.200	-0.0132	-0.0032	0.9988	0.0000	0.0000	0.0000	2.8510	1.5930	175.1880	37.4800	45	0	0 
01833.203	-0.0132	-0.0032	0.9988	0.0000	0.0000	0.0000	2.8455	1.5820	175.1990	37.5400	44	0	0 
01833.214	-0.0137	-0.0032	0.9990	0.0000	0.0000	0.0000	2.8345	1.5765	175.2045	37.5400	43	0	0 
01833.221	-0.0137	-0.0032	0.9990	0.0000	0.0000	0.0000	2.8290	1.5656	175.2100	37.4700	42	0	0 
01833.221	-0.0137	-0.0032	0.9990	0.0000	0.0000	0.0000	2.8235	1.5546	175.2209	37.4700	41	0	0 
01833.228	-0.0137	-0.0032	0.9990	0.0000	0.0000	0.0000	2.8125	1.5491	175.2264	37.3900	41	0	0 
01833.236	-0.0137	-0.0032	0.9990	0.0000	0.0000	0.0000	2.8070	1.5381	175.2374	37.3900	41	0	0 
01833.236	-0.0137	-0.0032	0.9990	0.0000	0.0000	0.0000	2.8015	1.5271	175.2429	37.3900	41	0	0 
01833.241	-0.0137	-0.0032	0.9990	0.0000	0.0000	0.0000	2.7905	1.5216	175.2484	37.5200	41	0	0 
01833.248	-0.0137	-0.0032	0.9990	0.0000	0.0000	0.0000	2.7850	1.5106	175.2594	37.5200	41	0	0 
01833.249	-0.0142	-0.0029	0.9993	0.0000	0.0000	0.0000	2.7795	1.4996	175.2649	37.4500	41	0	0 
01833.255	-0.0142	-0.0029	0.9993	0.0000	0.0000	0.0000	2.7740	1.4941	175.2704	37.4500	42	0	0 
01833.287	-0.0142	-0.0029	0.9993	0.0000	0.0000	0.0000	2.7631	1.4832	175.2814	37.4600	42	0	0 
01833.287	-0.0142	-0.0029	0.9993	0.0000	0.0000	0.0000	2.7576	1.4777	175.2869	37.4600	43	0	0 
01833.292	-0.0142	-0.0029	0.9993	0.0000	0.0000	0.0000	2.7521	1.4667	175.2924	37.5000	43	0	0 
01833.292	-0.0142	-0.0029	0.9993	0.0000	0.0000	0.0000	2.7411	1.4557	175.3033	37.5000	43	0	0 
01833.292	-0.0142	-0.0029	0.9993	0.0000	0.0000	0.0000	2.7356	1.4502	175.3088	37.4900	45	0	0 
01833.292	-0.0142	-0.0029	0.9993	0.0000	0.0000	0.0000	2.7301	1.4392	175.3143	37.4900	46	0	0 
01833.295	-0.0144	-0.0032	0.9998	0.0000	0.0000	0.0000	2.7246	1.4337	175.3253	37.4900	47	0	0 
01833.301	-0.0144	-0.0032	0.9998	0.0000	0.0000	0.0000	2.7136	1.4227	175.3308	37.4900	47	0	0 
01833.301	-0.0144	-0.0032	0.9998	0.0000	0.0000	0.0000	2.7081	1.4172	175.3363	37.5200	47	0	0 
01833.305	-0.0144	-0.0032	0.9998	0.0000	0.0000	0.0000	2.7026	1.4063	175.3418	37.5200	48	0	0 
01833.315	-0.0144	-0.0032	0.9998	0.0000	0.0000	0.0000	2.6971	1.4008	175.3528	37.4400	47	0	0 
01833.315	-0.0144	-0.0032	0.9998	0.0000	0.0000	0.0000	2.6862	1.3898	175.3583	37.4400	46	0	0 
01833.321	-0.0144	-0.0032	0.9998	0.0000	0.0000	0.0000	2.6807	1.3788	175.3638	37.4400	45	0	0 
01833.330	-0.0144	-0.0032	0.9998	0.0000	0.0000	0.0000	2.6752	1.3733	175.3748	37.4500	45	0	0 
01833.330	-0.0149	-0.0032	0.9998	0.0000	0.0000	0.0000	2.6642	1.3623	175.3802	37.4500	45	0	0 
01833.334	-0.0149	-0.0032	0.9998	0.0000	0.0000	0.0000	2.6587	1.3568	175.3857	37.4900	46	0	0 
01833.345	-0.0149	-0.0032	0.9998	0.0000	0.0000	0.0000	2.6532	1.3458	175.3912	37.4900	46	0	0 
01833.345	-0.0149	-0.0032	0.9998	0.0000	0.0000	0.0000	2.6477	1.3403	175.4022	37.4500	46	0	0 
01833.349	-0.0149	-0.0032	0.9998	0.0000	0.0000	0.0000	2.6422	1.3293	175.4077	37.4500	46	0	0 
01833.359	-0.0149	-0.0032	0.9998	0.0000	0.0000	0.0000	2.6312	1.3239	175.4132	37.4600	46	0	0 
01833.359	-0.0149	-0.0032	0.9998	0.0000	0.0000	0.0000	2.6257	1.3129	175.4187	37.4600	45	0	0 
01833.365	-0.0149	-0.0032	0.9998	0.0000	0.0000	0.0000	2.6202	1.3074	175.4297	37.5600	44	0	0 
01833.375	-0.0151	-0.0032	0.9998	0.0000	0.0000	0.0000	2.6147	1.3019	175.4352	37.5600	44	0	0 
01833.380	-0.0151	-0.0032	0.9998	0.0000	0.0000	0.0000	2.6038	1.2909	175.4407	37.5100	44	0	0 
01833.380	-0.0151	-0.0032	0.9998	0.0000	0.0000	0.0000	2.5983	1.2854	175.4462	37.5100	44	0	0 
01833.393	-0.0151	-0.0032	0.9998	0.0000	0.0000	0.0000	2.5928	1.2744	175.4572	37.4600	45	0	0 
01833.395	-0.0151	-0.0032	0.9998	0.0000	0.0000	0.0000	2.5873	1.2689	175.4626	37.4600	44	0	0 
01833.395	-0.0151	-0.0032	0.9998	0.0000	0.0000	0.0000	2.5818	1.2579	175.4681	37.4600	44	0	0 
01833.401	-0.0151	-0.0032	0.9998	0.0000	0.0000	0.0000	2.5708	1.2524	175.4736	37.5400	44	0	0 
01833.413	-0.0151	-0.0032	0.9998	0.0000	0.0000	0.0000	2.5653	1.2415	175.4846	37.5400	43	0	0 
01833.413	-0.0151	-0.0034	0.9998	0.0000	0.0000	0.0000	2.5598	1.2360	175.4901	37.4500	42	0	0 
01833.424	-0.0151	-0.0034	0.9998	0.0000	0.0000	0.0000	2.5543	1.2305	175.4956	37.4500	42	0	0 
01833.427	-0.0151	-0.0034	0.9998	0.0000	0.0000	0.0000	2.5488	1.2195	175.5011	37.4600	43	0	0 
01833.427	-0.0151	-0.0034	0.9998	0.0000	0.0000	0.0000	2.5378	1.2140	175.5121	37.4600	42	0	0 
01833.429	-0.0151	-0.0034	0.9998	0.0000	0.0000	0.0000	2.5323	1.2030	175.5176	37.5000	42	0	0 
01833.441	-0.0151	-0.0034	0.9998	0.0000	0.0000	0.0000	2.5269	1.1975	175.5231	37.5000	43	0	0 
01833.441	-0.0151	-0.0034	0.9998	0.0000	0.0000	0.0000	2.5214	1.1865	175.5286	37.4700	43	0	0 
01833.465	-0.0151	-0.0034	0.9998	0.0000	0.0000	0.0000	2.5159	1.1810	175.5341	37.4700	43	0	0 
01833.467	-0.0151	-0.0037	0.9995	0.0000	0.0000	0.0000	2.5049	1.1755	175.5450	37.5000	42	0	0 
01833.467	-0.0151	-0.0037	0.9995	0.0000	0.0000	0.0000	2.4994	1.1646	175.5505	37.5000	43	0	0 
01833.467	-0.0151	-0.0037	0.9995	0.0000	0.0000	0.0000	2.4939	1.1591	175.5560	37.4300	45	0	0 
01833.473	-0.0151	-0.0037	0.9995	0.0000	0.0000	0.0000	2.4884	1.1536	175.5615	37.4300	44	0	0 
01833.475	-0.0151	-0.0037	0.9995	0.0000	0.0000	0.0000	2.4829	1.1426	175.5670	37.5100	44	0	0 
01833.475	-0.0151	-0.0037	0.9995	0.0000	0.0000	0.0000	2.4774	1.1371	175.5725	37.5100	44	0	0 
01833.482	-0.0151	-0.0037	0.9995	0.0000	0.0000	0.0000	2.4664	1.1261	175.5835	37.5100	44	0	0 
01833.489	-0.0151	-0.0037	0.9995	0.0000	0.0000	0.0000	2.4609	1.1206	175.5890	37.5300	44	0	0 
01833.489	-0.0151	-0.0037	0.9995	0.0000	0.0000	0.0000	2.4554	1.1151	175.5945	37.5300	44	0	0 
01833.496	-0.0151	-0.0037	0.9995	0.0000	0.0000	0.0000	2.4500	1.1041	175.6000	37.5000	44	0	0 
01833.504	-0.0151	-0.0037	0.9995	0.0000	0.0000	0.0000	2.4445	1.0986	175.6055	37.5000	44	0	0 
01833.504	-0.0151	-0.0037	0.9995	0.0000	0.0000	0.0000	2.4390	1.0931	175.6110	37.5000	44	0	0 
01833.511	-0.0151	-0.0037	0.9995	0.0000	0.0000	0.0000	2.4335	1.0822	175.6219	37.5000	45	0	0 
01833.519	-0.0151	-0.0037	0.9995	0.0000	0.0000	0.0000	2.4225	1.0767	175.6274	37.4700	45	0	0 
01833.519	-0.0151	-0.0037	0.9995	0.0000	0.0000	0.0000	2.4170	1.0712	175.6329	37.4700	45	0	0 
01833.531	-0.0151	-0.0037	0.9995	0.0000	0.0000	0.0000	2.4115	1.0602	175.6384	37.4500	45	0	0 
01833.536	-0.0151	-0.0034	0.9995	0.0000	0.0000	0.0000	2.4060	1.0547	175.6439	37.4500	46	0	0 
01833.538	-0.0151	-0.0034	0.9995	0.0000	0.0000	0.0000	2.4005	1.0492	175.6494	37.4500	46	0	0 
01833.538	-0.0151	-0.0034	0.9995	0.0000	0.0000	0.0000	2.3950	1.0382	175.6549	37.4500	46	0	0 
01833.553	-0.0151	-0.0034	0.9995	0.0000	0.0000	0.0000	2.3895	1.0327	175.6659	37.4300	47	0	0 
01833.556	-0.0151	-0.0034	0.9995	0.0000	0.0000	0.0000	2.3840	1.0272	175.6714	37.4300	47	0	0 
01833.556	-0.0151	-0.0034	0.9995	0.0000	0.0000	0.0000	2.3730	1.0162	175.6769	37.3500	47	0	0 
01833.563	-0.0151	-0.0034	0.9995	0.0000	0.0000	0.0000	2.3676	1.0107	175.6824	37.3500	47	0	0 
01833.571	-0.0154	-0.0034	0.9995	0.0000	0.0000	0.0000	2.3621	1.0052	175.6879	37.3500	47	0	0 
01833.571	-0.0154	-0.0034	0.9995	0.0000	0.0000	0.0000	2.3566	0.9943	175.6934	37.5400	46	0	0 
01833.575	-0.0154	-0.0034	0.9995	0.0000	0.0000	0.0000	2.3511	0.9888	175.6989	37.5400	46	0	0 
01833.586	-0.0154	-0.0034	0.9995	0.0000	0.0000	0.0000	2.3456	0.9833	175.7043	37.4700	46	0	0 
01833.586	-0.0154	-0.0034	0.9995	0.0000	0.0000	0.0000	2.3401	0.9778	175.7153	37.4700	46	0	0 
01833.592	-0.0154	-0.0034	0.9995	0.0000	0.0000	0.0000	2.3346	0.9668	175.7208	37.3900	46	0	0 
01833.597	-0.0154	-0.0034	0.9995	0.0000	0.0000	0.0000	2.3291	0.9613	175.7263	37.3900	46	0	0 
01833.597	-0.0154	-0.0034	0.9995	0.0000	0.0000	0.0000	2.3236	0.9558	175.7318	37.5200	47	0	0 
01833.605	-0.0154	-0.0032	0.9995	0.0000	0.0000	0.0000	2.3181	0.9503	175.7373	37.5200	47	0	0 
01833.615	-0.0154	-0.0032	0.9995	0.0000	0.0000	0.0000	2.3126	0.9393	175.7428	37.5000	48	0	0 
01833.615	-0.0154	-0.0032	0.9995	0.0000	0.0000	0.0000	2.3016	0.9338	175.7483	37.5000	48	0	0 
01833.629	-0.0154	-0.0032	0.9995	0.0000	0.0000	0.0000	2.2961	0.9283	175.7538	37.4500	48	0	0 
01833.636	-0.0154	-0.0032	0.9995	0.0000	0.0000	0.0000	2.2906	0.9229	175.7593	37.4500	48	0	0 
01833.638	-0.0154	-0.0032	0.9995	0.0000	0.0000	0.0000	2.2852	0.9119	175.7648	37.4800	49	0	0 
01833.638	-0.0154	-0.0032	0.9995	0.0000	0.0000	0.0000	2.2797	0.9064	175.7703	37.4800	49	0	0 
01833.664	-0.0154	-0.0032	0.9995	0.0000	0.0000	0.0000	2.2742	0.9009	175.7758	37.5000	49	0	0 
01833.691	-0.0154	-0.0032	0.9995	0.0000	0.0000	0.0000	2.2687	0.8954	175.7867	37.5000	48	0	0 
01833.691	-0.0154	-0.0032	0.9995	0.0000	0.0000	0.0000	2.2632	0.8844	175.7922	37.5000	49	0	0 
01833.693	-0.0154	-0.0032	0.9995	0.0000	0.0000	0.0000	2.2577	0.8789	175.7977	37.4800	49	0	0 
01833.693	-0.0154	-0.0032	0.9995	0.0000	0.0000	0.0000	2.2522	0.8734	175.8032	37.4800	48	0	0 
01833.693	-0.0154	-0.0032	0.9995	0.0000	0.0000	0.0000	2.2467	0.8679	175.8087	37.4800	48	0	0 
01833.693	-0.0154	-0.0032	0.9995	0.0000	0.0000	0.0000	2.2412	0.8624	175.8142	37.4800	48	0	0 
01833.693	-0.0154	-0.0032	0.9995	0.0000	0.0000	0.0000	2.2357	0.8514	175.8197	37.4300	48	0	0 
01833.693	-0.0154	-0.0032	0.9995	0.0000	0.0000	0.0000	2.2302	0.8459	175.8252	37.4300	47	0	0 
01833.693	-0.0154	-0.0029	0.9993	0.0000	0.0000	0.0000	2.2247	0.8405	175.8307	37.4300	47	0	0 
01833.699	-0.0154	-0.0029	0.9993	0.0000	0.0000	0.0000	2.2192	0.8350	175.8362	37.4300	46	0	0 
01833.707	-0.0154	-0.0029	0.9993	0.0000	0.0000	0.0000	2.2137	0.8295	175.8417	37.4300	46	0	0 
01833.707	-0.0154	-0.0029	0.9993	0.0000	0.0000	0.0000	2.2083	0.8185	175.8472	37.4300	45	0	0 
01833.709	-0.0154	-0.0029	0.9993	0.0000	0.0000	0.0000	2.2028	0.8130	175.8527	37.5100	44	0	0 
01833.714	-0.0154	-0.0029	0.9993	0.0000	0.0000	0.0000	2.1973	0.8075	175.8582	37.5100	44	0	0 
01833.714	-0.0154	-0.0029	0.9993	0.0000	0.0000	0.0000	2.1918	0.8020	175.8636	37.4500	44	0	0 
01833.733	-0.0154	-0.0029	0.9993	0.0000	0.0000	0.0000	2.1863	0.7965	175.8691	37.4500	44	0	0 
01833.743	-0.0154	-0.0029	0.9993	0.0000	0.0000	0.0000	2.1808	0.7855	175.8746	37.4500	44	0	0 
01833.743	-0.0154	-0.0029	0.9993	0.0000	0.0000	0.0000	2.1753	0.7800	175.8801	37.4600	44	0	0 
01833.748	-0.0154	-0.0029	0.9993	0.0000	0.0000	0.0000	2.1698	0.7745	175.8856	37.4600	44	0	0 
01833.758	-0.0154	-0.0029	0.9993	0.0000	0.0000	0.0000	2.1643	0.7690	175.8911	37.5300	44	0	0 
01833.758	-0.0154	-0.0029	0.9993	0.0000	0.0000	0.0000	2.1588	0.7635	175.8966	37.5300	44	0	0 
01833.765	-0.0154	-0.0029	0.9993	0.0000	0.0000	0.0000	2.1533	0.7581	175.9021	37.5000	45	0	0 
01833.780	-0.0154	-0.0029	0.9993	0.0000	0.0000	0.0000	2.1478	0.7526	175.9076	37.5000	45	0	0 
01833.780	-0.0154	-0.0029	0.9993	0.0000	0.0000	0.0000	2.1423	0.7416	175.9131	37.4700	45	0	0 
01833.783	-0.0151	-0.0032	0.9990	0.0000	0.0000	0.0000	2.1368	0.7361	175.9186	37.4700	44	0	0 
01833.785	-0.0151	-0.0032	0.9990	0.0000	0.0000	0.0000	2.1313	0.7306	175.9241	37.5200	44	0	0 
01833.790	-0.0151	-0.0032	0.9990	0.0000	0.0000	0.0000	2.1259	0.7251	175.9296	37.5200	43	0	0 
01833.790	-0.0151	-0.0032	0.9990	0.0000	0.0000	0.0000	2.1204	0.7196	175.9351	37.4500	43	0	0 
01833.793	-0.0151	-0.0032	0.9990	0.0000	0.0000	0.0000	2.1149	0.7141	175.9406	37.4500	42	0	0 
01833.797	-0.0151	-0.0032	0.9990	0.0000	0.0000	0.0000	2.1094	0.7086	175.9460	37.4600	41	0	0 
01833.797	-0.0151	-0.0032	0.9990	0.0000	0.0000	0.0000	2.1039	0.6976	175.9515	37.4600	40	0	0 
01833.810	-0.0151	-0.0032	0.9990	0.0000	0.0000	0.0000	2.0984	0.6921	175.9570	37.4600	41	0	0 
01833.812	-0.0151	-0.0032	0.9990	0.0000	0.0000	0.0000	2.0984	0.6866	175.9625	37.4600	41	0	0 
01833.812	-0.0151	-0.0032	0.9990	0.0000	0.0000	0.0000	2.0929	0.6812	175.9680	37.4600	41	0	0 
01833.814	-0.0151	-0.0032	0.9990	0.0000	0.0000	0.0000	2.0874	0.6757	175.9735	37.4500	41	0	0 
01833.826	-0.0151	-0.0032	0.9990	0.0000	0.0000	0.0000	2.0819	0.6702	175.9790	37.4500	41	0	0 
01833.827	-0.0151	-0.0032	0.9990	0.0000	0.0000	0.0000	2.0764	0.6647	175.9845	37.5100	41	0	0 
01833.834	-0.0151	-0.0032	0.9990	0.0000	0.0000	0.0000	2.0709	0.6592	175.9900	37.5100	41	0	0 
01833.837	-0.0151	-0.0032	0.9990	0.0000	0.0000	0.0000	2.0654	0.6537	175.9955	37.5100	41	0	0 
01833.837	-0.0151	-0.0032	0.9990	0.0000	0.0000	0.0000	2.0599	0.6427	176.0010	37.5100	42	0	0 
01833.848	-0.0151	-0.0034	0.9993	0.0000	0.0000	0.0000	2.0544	0.6372	176.0065	37.5000	42	0	0 
01833.856	-0.0151	-0.0034	0.9993	0.0000	0.0000	0.0000	2.0490	0.6317	176.0120	37.5000	42	0	0 
01833.856	-0.0151	-0.0034	0.9993	0.0000	0.0000	0.0000	2.0435	0.6262	176.0175	37.4600	42	0	0 
01833.859	-0.0151	-0.0034	0.9993	0.0000	0.0000	0.0000	2.0380	0.6207	176.0229	37.4600	42	0	0 
01833.872	-0.0151	-0.0034	0.9993	0.0000	0.0000	0.0000	2.0325	0.6152	176.0284	37.4400	42	0	0 
01833.878	-0.0151	-0.0034	0.9993	0.0000	0.0000	0.0000	2.0270	0.6097	176.0339	37.4400	42	0	0 
01833.878	-0.0151	-0.0034	0.9993	0.0000	0.0000	0.0000	2.0215	0.6042	176.0394	37.4500	42	0	0 
01833.883	-0.0151	-0.0034	0.9993	0.0000	0.0000	0.0000	2.0215	0.5988	176.0394	37.4500	41	0	0 
01833.894	-0.0149	-0.0034	0.9993	0.0000	0.0000	0.0000	2.0160	0.5933	176.0449	37.4400	41	0	0 
01833.894	-0.0149	-0.0034	0.9993	0.0000	0.0000	0.0000	2.0105	0.5878	176.0504	37.4400	42	0	0 
01833.922	-0.0149	-0.0034	0.9993	0.0000	0.0000	0.0000	2.0050	0.5823	176.0559	37.4400	41	0	0 
01833.924	-0.0149	-0.0034	0.9993	0.0000	0.0000	0.0000	1.9995	0.5768	176.0614	37.4400	40	0	0 
01833.924	-0.0149	-0.0034	0.9993	0.0000	0.0000	0.0000	1.9940	0.5658	176.0669	37.4400	41	0	0 
01833.924	-0.0149	-0.0034	0.9993	0.0000	0.0000	0.0000	1.9885	0.5603	176.0724	37.4400	42	0	0 
01833.924	-0.0149	-0.0034	0.9993	0.0000	0.0000	0.0000	1.9830	0.5548	176.0779	37.4400	42	0	0 
01833.924	-0.0149	-0.0034	0.9993	0.0000	0.0000	0.0000	1.9775	0.5493	176.0834	37.4100	42	0	0 
01833.924	-0.0146	-0.0034	0.9995	0.0000	0.0000	0.0000	1.9720	0.5438	176.0889	37.4100	42	0	0 
01833.938	-0.0146	-0.0034	0.9995	0.0000	0.0000	0.0000	1.9666	0.5383	176.0944	37.4900	42	0	0 
01833.938	-0.0146	-0.0034	0.9995	0.0000	0.0000	0.0000	1.9666	0.5328	176.0999	37.4900	41	0	0 
01833.947	-0.0146	-0.0034	0.9995	0.0000	0.0000	0.0000	1.9611	0.5273	176.0999	37.5300	41	0	0 
01833.950	-0.0146	-0.0034	0.9995	0.0000	0.0000	0.0000	1.9556	0.5219	176.1053	37.5300	41	0	0 
01833.953	-0.0146	-0.0034	0.9995	0.0000	0.0000	0.0000	1.9501	0.5164	176.1108	37.4600	40	0	0 
01833.953	-0.0146	-0.0034	0.9995	0.0000	0.0000	0.0000	1.9446	0.5109	176.1163	37.4600	41	0	0 
01833.961	-0.0146	-0.0034	0.9995	0.0000	0.0000	0.0000	1.9391	0.5054	176.1218	37.4300	42	0	0 
01833.970	-0.0146	-0.0037	0.9998	0.0000	0.0000	0.0000	1.9336	0.4999	176.1273	37.4300	41	0	0 
01833.970	-0.0146	-0.0037	0.9998	0.0000	0.0000	0.0000	1.9281	0.4944	176.1328	37.4000	40	0	0 
01833.974	-0.0146	-0.0037	0.9998	0.0000	0.0000	0.0000	1.9281	0.4889	176.1383	37.4000	41	0	0 
01833.984	-0.0146	-0.0037	0.9998	0.0000	0.0000	0.0000	1.9226	0.4834	176.1438	37.4000	41	0	0 
01833.984	-0.0146	-0.0037	0.9998	0.0000	0.0000	0.0000	1.9171	0.4779	176.1438	37.4700	42	0	0 
01833.990	-0.0146	-0.0037	0.9998	0.0000	0.0000	0.0000	1.9116	0.4724	176.1493	37.4700	43	0	0 
01833.999	-0.0146	-0.0037	0.9998	0.0000	0.0000	0.0000	1.9061	0.4669	176.1548	37.4800	43	0	0 
01833.999	-0.0146	-0.0037	0.9998	0.0000	0.0000	0.0000	1.9006	0.4614	176.1603	37.4800	44	0	0 
01834.005	-0.0146	-0.0037	0.9998	0.0000	0.0000	0.0000	1.8951	0.4559	176.1658	37.4900	43	0	0 
01834.014	-0.0146	-0.0037	0.9998	0.0000	0.0000	0.0000	1.8951	0.4504	176.1713	37.4900	42	0	0 
01834.014	-0.0146	-0.0037	0.9998	0.0000	0.0000	0.0000	1.8896	0.4449	176.1768	37.4400	43	0	0 
01834.018	-0.0146	-0.0037	0.9998	0.0000	0.0000	0.0000	1.8842	0.4395	176.1823	37.4400	44	0	0 
01834.030	-0.0146	-0.0037	0.9998	0.0000	0.0000	0.0000	1.8787	0.4340	176.1823	37.5200	44	0	0 
01834.030	-0.0146	-0.0037	0.9998	0.0000	0.0000	0.0000	1.8732	0.4285	176.1877	37.5200	43	0	0 
01834.044	-0.0146	-0.0037	0.9998	0.0000	0.0000	0.0000	1.8677	0.4230	176.1932	37.4600	44	0	0 
01834.048	-0.0146	-0.0037	0.9998	0.0000	0.0000	0.0000	1.8622	0.4175	176.1987	37.4600	45	0	0 
01834.053	-0.0149	-0.0039	0.9995	0.0000	0.0000	0.0000	1.8622	0.4120	176.2042	37.5300	44	0	0 
01834.053	-0.0149	-0.0039	0.9995	0.0000	0.0000	0.0000	1.8567	0.4065	176.2097	37.5300	44	0	0 
01834.062	-0.0149	-0.0039	0.9995	0.0000	0.0000	0.0000	1.8512	0.4010	176.2097	37.4500	45	0	0 
01834.065	-0.0149	-0.0039	0.9995	0.0000	0.0000	0.0000	1.8457	0.3955	176.2152	37.4500	45	0	0 
01834.065	-0.0149	-0.0039	0.9995	0.0000	0.0000	0.0000	1.8402	0.3900	176.2207	37.4500	44	0	0 
01834.071	-0.0149	-0.0039	0.9995	0.0000	0.0000	0.0000	1.8347	0.3845	176.2262	37.4500	43	0	0 
01834.097	-0.0149	-0.0039	0.9995	0.0000	0.0000	0.0000	1.8347	0.3790	176.2317	37.4500	43	0	0 
01834.097	-0.0149	-0.0039	0.9995	0.0000	0.0000	0.0000	1.8292	0.3735	176.2372	37.4100	43	0	0 
01834.099	-0.0149	-0.0039	0.9993	0.0000	0.0000	0.0000	1.8237	0.3680	176.2372	37.4100	42	0	0 
01834.099	-0.0149	-0.0039	0.9993	0.0000	0.0000	0.0000	1.8182	0.3625	176.2427	37.4600	42	0	0 
01834.099	-0.0149	-0.0039	0.9993	0.0000	0.0000	0.0000	1.8127	0.3571	176.2482	37.4600	42	0	0 
01834.101	-0.0149	-0.0039	0.9993	0.0000	0.0000	0.0000	1.8073	0.3516	176.2537	37.4400	43	0	0 
01834.109	-0.0149	-0.0039	0.9993	0.0000	0.0000	0.0000	1.8073	0.3461	176.2592	37.4400	44	0	0 
01834.118	-0.0149	-0.0039	0.9993	0.0000	0.0000	0.0000	1.8018	0.3406	176.2646	37.4800	44	0	0 
01834.118	-0.0149	-0.0039	0.9993	0.0000	0.0000	0.0000	1.7963	0.3406	176.2646	37.4800	45	0	0 
01834.123	-0.0149	-0.0039	0.9993	0.0000	0.0000	0.0000	1.7908	0.3351	176.2701	37.4800	45	0	0 
01834.136	-0.0151	-0.0039	0.9990	0.0000	0.0000	0.0000	1.7853	0.3296	176.2756	37.4800	45	0	0 
01834.136	-0.0151	-0.0039	0.9990	0.0000	0.0000	0.0000	1.7853	0.3241	176.2811	37.5000	45	0	0 
01834.145	-0.0151	-0.0039	0.9990	0.0000	0.0000	0.0000	1.7798	0.3186	176.2866	37.5000	45	0	0 
01834.150	-0.0151	-0.0039	0.9990	0.0000	0.0000	0.0000	1.7743	0.3131	176.2866	37.5000	45	0	0 
01834.150	-0.0151	-0.0039	0.9990	0.0000	0.0000	0.0000	1.7688	0.3076	176.2921	37.4000	45	0	0 
01834.155	-0.0151	-0.0039	0.9990	0.0000	0.0000	0.0000	1.7633	0.3021	176.2976	37.4000	45	0	0 
01834.158	-0.0151	-0.0039	0.9990	0.0000	0.0000	0.0000	1.7633	0.2966	176.3031	37.5000	45	0	0 
01834.158	-0.0151	-0.0039	0.9990	0.0000	0.0000	0.0000	1.7578	0.2911	176.3086	37.5000	44	0	0 
01834.172	-0.0149	-0.0039	0.9993	0.0000	0.0000	0.0000	1.7523	0.2856	176.3086	37.4700	44	0	0 
01834.176	-0.0149	-0.0039	0.9993	0.0000	0.0000	0.0000	1.7468	0.2856	176.3141	37.4700	44	0	0 
01834.176	-0.0149	-0.0039	0.9993	0.0000	0.0000	0.0000	1.7413	0.2802	176.3196	37.3900	44	0	0 
01834.180	-0.0149	-0.0039	0.9993	0.0000	0.0000	0.0000	1.7413	0.2747	176.3251	37.3900	43	0	0 
01834.189	-0.0149	-0.0039	0.9993	0.0000	0.0000	0.0000	1.7358	0.2692	176.3306	37.4300	43	0	0 
01834.193	-0.0149	-0.0039	0.9993	0.0000	0.0000	0.0000	1.7303	0.2637	176.3306	37.4300	43	0	0 
01834.193	-0.0149	-0.0039	0.9993	0.0000	0.0000	0.0000	1.7249	0.2582	176.3361	37.4600	43	0	0 
01834.203	-0.0149	-0.0039	0.9993	0.0000	0.0000	0.0000	1.7194	0.2527	176.3416	37.4600	43	0	0 
01834.209	-0.0151	-0.0037	0.9995	0.0000	0.0000	0.0000	1.7194	0.2472	176.3470	37.4900	42	0	0 
01834.209	-0.0151	-0.0037	0.9995	0.0000	0.0000	0.0000	1.7139	0.2417	176.3470	37.4900	43	0	0 
01834.216	-0.0151	-0.0037	0.9995	0.0000	0.0000	0.0000	1.7084	0.2417	176.3525	37.4100	44	0	0 
01834.227	-0.0151	-0.0037	0.9995	0.0000	0.0000	0.0000	1.7029	0.2362	176.3580	37.4100	44	0	0 
01834.227	-0.0151	-0.0037	0.9995	0.0000	0.0000	0.0000	1.7029	0.2307	176.3635	37.4100	44	0	0 
01834.233	-0.0151	-0.0037	0.9995	0.0000	0.0000	0.0000	1.6974	0.2252	176.3635	37.5100	44	0	0 
01834.238	-0.0151	-0.0037	0.9995	0.0000	0.0000	0.0000	1.6919	0.2197	176.3690	37.5100	44	0	0 
01834.238	-0.0151	-0.0037	0.9995	0.0000	0.0000	0.0000	1.6864	0.2142	176.3745	37.4600	44	0	0 
01834.248	-0.0151	-0.0037	0.9995	0.0000	0.0000	0.0000	1.6864	0.2087	176.3800	37.4600	45	0	0 
01834.275	-0.0151	-0.0037	0.9995	0.0000	0.0000	0.0000	1.6809	0.2087	176.3800	37.4700	45	0	0 
01834.275	-0.0151	-0.0037	0.9995	0.0000	0.0000	0.0000	1.6754	0.2032	176.3855	37.4700	45	0	0 
01834.277	-0.0151	-0.0037	0.9995	0.0000	0.0000	0.0000	1.6699	0.1978	176.3910	37.4700	45	0	0 
01834.277	-0.0151	-0.0037	0.9995	0.0000	0.0000	0.0000	1.6699	0.1923	176.3965	37.4700	45	0	0 
01834.277	-0.0151	-0.0037	0.9995	0.0000	0.0000	0.0000	1.6644	0.1868	176.3965	37.4000	44	0	0 
01834.277	-0.0151	-0.0037	0.9995	0.0000	0.0000	0.0000	1.6589	0.1813	176.4020	37.4000	43	0	0 
01834.304	-0.0151	-0.0037	0.9995	0.0000	0.0000	0.0000	1.6534	0.1758	176.4075	37.4500	44	0	0 
01834.317	-0.0154	-0.0034	0.9995	0.0000	0.0000	0.0000	1.6534	0.1758	176.4130	37.4500	45	0	0 
01834.317	-0.0154	-0.0034	0.9995	0.0000	0.0000	0.0000	1.6479	0.1703	176.4130	37.4800	44	0	0 
01834.319	-0.0154	-0.0034	0.9995	0.0000	0.0000	0.0000	1.6425	0.1648	176.4185	37.4800	44	0	0 
01834.322	-0.0154	-0.0034	0.9995	0.0000	0.0000	0.0000	1.6425	0.1593	176.4240	37.4700	44	0	0 
01834.322	-0.0154	-0.0034	0.9995	0.0000	0.0000	0.0000	1.6370	0.1538	176.4294	37.4700	44	0	0 
01834.324	-0.0154	-0.0034	0.9995	0.0000	0.0000	0.0000	1.6315	0.1538	176.4294	37.4700	44	0	0 
01834.327	-0.0154	-0.0034	0.9995	0.0000	0.0000	0.0000	1.6260	0.1483	176.4349	37.4800	44	0	0 
01834.327	-0.0154	-0.0034	0.9995	0.0000	0.0000	0.0000	1.6260	0.1428	176.4404	37.4800	44	0	0 
01834.329	-0.0154	-0.0034	0.9993	0.0000	0.0000	0.0000	1.6205	0.1373	176.4404	37.4200	44	0	0 
01834.337	-0.0154	-0.0034	0.9993	0.0000	0.0000	0.0000	1.6150	0.1318	176.4459	37.4200	44	0	0 
01834.337	-0.0154	-0.0034	0.9993	0.0000	0.0000	0.0000	1.6150	0.1318	176.4514	37.4400	44	0	0 
01834.345	-0.0154	-0.0034	0.9993	0.0000	0.0000	0.0000	1.6095	0.1263	176.4569	37.4400	43	0	0 
01834.348	-0.0154	-0.0034	0.9993	0.0000	0.0000	0.0000	1.6040	0.1208	176.4569	37.5100	44	0	0 
01834.348	-0.0154	-0.0034	0.9993	0.0000	0.0000	0.0000	1.6040	0.1154	176.4624	37.5100	44	0	0 
01834.355	-0.0154	-0.0034	0.9993	0.0000	0.0000	0.0000	1.5985	0.1099	176.4679	37.4200	43	0	0 
01834.363	-0.0154	-0.0034	0.9993	0.0000	0.0000	0.0000	1.5930	0.1099	176.4679	37.4200	43	0	0 
01834.371	-0.0154	-0.0034	0.9993	0.0000	0.0000	0.0000	1.5875	0.1044	176.4734	37.4600	42	0	0 
01834.372	-0.0154	-0.0034	0.9993	0.0000	0.0000	0.0000	1.5875	0.0989	176.4789	37.4600	41	0	0 
01834.380	-0.0154	-0.0034	0.9993	0.0000	0.0000	0.0000	1.5820	0.0934	176.4844	37.4500	41	0	0 
01834.385	-0.0154	-0.0034	0.9993	0.0000	0.0000	0.0000	1.5765	0.0879	176.4844	37.4500	40	0	0 
01834.385	-0.0154	-0.0034	0.9993	0.0000	0.0000	0.0000	1.5765	0.0879	176.4899	37.4700	40	0	0 
01834.389	-0.0154	-0.0034	0.9993	0.0000	0.0000	0.0000	1.5710	0.0824	176.4954	37.4700	41	0	0 
01834.400	-0.0154	-0.0034	0.9993	0.0000	0.0000	0.0000	1.5656	0.0769	176.4954	37.4700	42	0	0 
01834.400	-0.0154	-0.0034	0.9993	0.0000	0.0000	0.0000	1.5656	0.0714	176.5009	37.5300	43	0	0 
01834.407	-0.0154	-0.0032	0.9995	0.0000	0.0000	0.0000	1.5601	0.0714	176.5063	37.5300	43	0	0 
01834.413	-0.0154	-0.0032	0.9995	0.0000	0.0000	0.0000	1.5546	0.0659	176.5063	37.4600	42	0	0 
01834.413	-0.0154	-0.0032	0.9995	0.0000	0.0000	0.0000	1.5546	0.0604	176.5118	37.4600	42	0	0 
01834.423	-0.0154	-0.0032	0.9995	0.0000	0.0000	0.0000	1.5491	0.0549	176.5173	37.4400	41	0	0 
01834.431	-0.0154	-0.0032	0.9995	0.0000	0.0000	0.0000	1.5436	0.0549	176.5173	37.4400	41	0	0 
01834.431	-0.0154	-0.0032	0.9995	0.0000	0.0000	0.0000	1.5436	0.0494	176.5228	37.4400	41	0	0 
01834.437	-0.0154	-0.0032	0.9995	0.0000	0.0000	0.0000	1.5381	0.0439	176.5283	37.4400	41	0	0 
01834.445	-0.0154	-0.0032	0.9995	0.0000	0.0000	0.0000	1.5326	0.0385	176.5283	37.4400	41	0	0 
01834.445	-0.0154	-0.0034	0.9995	0.0000	0.0000	0.0000	1.5326	0.0385	176.5338	37.4400	41	0	0 
01834.451	-0.0154	-0.0034	0.9995	0.0000	0.0000	0.0000	1.5271	0.0330	176.5393	37.4700	41	0	0 
01834.454	-0.0154	-0.0034	0.9995	0.0000	0.0000	0.0000	1.5216	0.0275	176.5393	37.4700	42	0	0 
01834.466	-0.0154	-0.0034	0.9995	0.0000	0.0000	0.0000	1.5216	0.0220	176.5448	37.4800	42	0	0 
01834.466	-0.0154	-0.0034	0.9995	0.0000	0.0000	0.0000	1.5161	0.0220	176.5503	37.4800	42	0	0 
01834.470	-0.0154	-0.0034	0.9995	0.0000	0.0000	0.0000	1.5161	0.0165	176.5503	37.4800	42	0	0 
01834.508	-0.0154	-0.0034	0.9995	0.0000	0.0000	0.0000	1.5106	0.0110	176.5558	37.4900	43	0	0 
01834.508	-0.0154	-0.0034	0.9995	0.0000	0.0000	0.0000	1.5051	0.0055	176.5613	37.4900	44	0	0 
01834.510	-0.0154	-0.0032	0.9998	0.0000	0.0000	0.0000	1.5051	0.0055	176.5613	37.4400	44	0	0 
01834.510	-0.0154	-0.0032	0.9998	0.0000	0.0000	0.0000	1.4996	0.0000	176.5668	37.4400	44	0	0 
01834.510	-0.0154	-0.0032	0.9998	0.0000	0.0000	0.0000	1.4941	0.0000	176.5723	37.5100	44	0	0 
01834.510	-0.0154	-0.0032	0.9998	0.0000	0.0000	0.0000	1.4941	-0.0055	176.5723	37.5100	44	0	0 
01834.510	-0.0154	-0.0032	0.9998	0.0000	0.0000	0.0000	1.4886	-0.0055	176.5778	37.4800	45	0	0 
01834.510	-0.0154	-0.0032	0.9998	0.0000	0.0000	0.0000	1.4832	-0.0110	176.5833	37.4800	46	0	0 
01834.513	-0.0154	-0.0032	0.9998	0.0000	0.0000	0.0000	1.4832	-0.0165	176.5833	37.4700	46	0	0 
01834.526	-0.0154	-0.0032	0.9998	0.0000	0.0000	0.0000	1.4777	-0.0165	176.5887	37.4700	46	0	0 
01834.526	-0.0156	-0.0034	0.9998	0.0000	0.0000	0.0000	1.4777	-0.0220	176.5942	37.4700	46	0	0 
01834.528	-0.0156	-0.0034	0.9998	0.0000	0.0000	0.0000	1.4722	-0.0275	176.5942	37.4700	46	0	0 
01834.536	-0.0156	-0.0034	0.9998	0.0000	0.0000	0.0000	1.4667	-0.0275	176.5997	37.4800	45	0	0 
01834.548	-0.0156	-0.0034	0.9998	0.0000	0.0000	0.0000	1.4667	-0.0330	176.5997	37.4800	44	0	0 
01834.548	-0.0156	-0.0034	0.9998	0.0000	0.0000	0.0000	1.4612	-0.0385	176.6052	37.4200	45	0	0 
01834.552	-0.0156	-0.0034	0.9998	0.0000	0.0000	0.0000	1.4557	-0.0439	176.6107	37.4200	45	0	0 
01834.556	-0.0156	-0.0034	0.9998	0.0000	0.0000	0.0000	1.4557	-0.0439	176.6107	37.4200	45	0	0 
01834.556	-0.0156	-0.0034	0.9998	0.0000	0.0000	0.0000	1.4502	-0.0494	176.6162	37.4700	45	0	0 
01834.569	-0.0156	-0.0037	0.9995	0.0000	0.0000	0.0000	1.4502	-0.0549	176.6217	37.4700	45	0	0 
01834.574	-0.0156	-0.0037	0.9995	0.0000	0.0000	0.0000	1.4447	-0.0549	176.6217	37.4700	45	0	0 
01834.589	-0.0156	-0.0037	0.9995	0.0000	0.0000	0.0000	1.4392	-0.0604	176.6272	37.4700	45	0	0 
01834.589	-0.0156	-0.0037	0.9995	0.0000	0.0000	0.0000	1.4392	-0.0659	176.6327	37.4100	44	0	0 
01834.595	-0.0156	-0.0037	0.9995	0.0000	0.0000	0.0000	1.4337	-0.0659	176.6327	37.4100	44	0	0 
01834.599	-0.0156	-0.0037	0.9995	0.0000	0.0000	0.0000	1.4337	-0.0714	176.6382	37.4400	45	0	0 
01834.599	-0.0156	-0.0037	0.9995	0.0000	0.0000	0.0000	1.4282	-0.0769	176.6382	37.4400	45	0	0 
01834.601	-0.0156	-0.0037	0.9995	0.0000	0.0000	0.0000	1.4227	-0.0769	176.6437	37.4500	45	0	0 
01834.611	-0.0159	-0.0039	0.9995	0.0000	0.0000	0.0000	1.4227	-0.0824	176.6492	37.4500	46	0	0 
01834.611	-0.0159	-0.0039	0.9995	0.0000	0.0000	0.0000	1.4172	-0.0879	176.6492	37.5000	46	0	0 
01834.620	-0.0159	-0.0039	0.9995	0.0000	0.0000	0.0000	1.4117	-0.0879	176.6547	37.5000	45	0	0 
01834.623	-0.0159	-0.0039	0.9995	0.0000	0.0000	0.0000	1.4117	-0.0934	176.6547	37.4700	45	0	0 
01834.623	-0.0159	-0.0039	0.9995	0.0000	0.0000	0.0000	1.4063	-0.0989	176.6602	37.4700	45	0	0 
01834.633	-0.0159	-0.0039	0.9995	0.0000	0.0000	0.0000	1.4063	-0.0989	176.6656	37.4800	44	0	0 
01834.645	-0.0159	-0.0039	0.9995	0.0000	0.0000	0.0000	1.4008	-0.1044	176.6656	37.4800	43	0	0 
01834.645	-0.0159	-0.0039	0.9995	0.0000	0.0000	0.0000	1.3953	-0.1099	176.6711	37.4800	44	0	0 
01834.687	-0.0161	-0.0039	0.9995	0.0000	0.0000	0.0000	1.3953	-0.1099	176.6711	37.4900	45	0	0 
01834.689	-0.0161	-0.0039	0.9995	0.0000	0.0000	0.0000	1.3898	-0.1154	176.6766	37.4900	44	0	0 
01834.689	-0.0161	-0.0039	0.9995	0.0000	0.0000	0.0000	1.3898	-0.1208	176.6821	37.4800	44	0	0 
01834.689	-0.0161	-0.0039	0.9995	0.0000	0.0000	0.0000	1.3843	-0.1208	176.6821	37.4800	43	0	0 
01834.699	-0.0161	-0.0039	0.9995	0.0000	0.0000	0.0000	1.3788	-0.1263	176.6876	37.4800	42	0	0 
01834.705	-0.0161	-0.0039	0.9995	0.0000	0.0000	0.0000	1.3788	-0.1263	176.6876	37.4800	43	0	0 
01834.705	-0.0161	-0.0039	0.9995	0.0000	0.0000	0.0000	1.3733	-0.1318	176.6931	37.4700	44	0	0 
01834.708	-0.0161	-0.0039	0.9995	0.0000	0.0000	0.0000	1.3733	-0.1373	176.6986	37.4700	43	0	0 
01834.714	-0.0161	-0.0039	0.9998	0.0000	0.0000	0.0000	1.3678	-0.1373	176.6986	37.4400	43	0	0 
01834.714	-0.0161	-0.0039	0.9998	0.0000	0.0000	0.0000	1.3678	-0.1428	176.7041	37.4400	43	0	0 
01834.718	-0.0161	-0.0039	0.9998	0.0000	0.0000	0.0000	1.3623	-0.1483	176.7041	37.4300	43	0	0 
01834.720	-0.0161	-0.0039	0.9998	0.0000	0.0000	0.0000	1.3568	-0.1483	176.7096	37.4300	43	0	0 
01834.720	-0.0161	-0.0039	0.9998	0.0000	0.0000	0.0000	1.3568	-0.1538	176.7096	37.4600	43	0	0 
01834.722	-0.0161	-0.0039	0.9998	0.0000	0.0000	0.0000	1.3513	-0.1538	176.7151	37.4600	43	0	0 
01834.724	-0.0161	-0.0039	0.9998	0.0000	0.0000	0.0000	1.3513	-0.1593	176.7206	37.4800	42	0	0 
01834.724	-0.0161	-0.0039	0.9998	0.0000	0.0000	0.0000	1.3458	-0.1648	176.7206	37.4800	43	0	0 
01834.726	-0.0161	-0.0037	0.9998	0.0000	0.0000	0.0000	1.3403	-0.1648	176.7261	37.4800	44	0	0 
01834.738	-0.0161	-0.0037	0.9998	0.0000	0.0000	0.0000	1.3403	-0.1703	176.7261	37.4500	45	0	0 
01834.738	-0.0161	-0.0037	0.9998	0.0000	0.0000	0.0000	1.3348	-0.1703	176.7316	37.4500	46	0	0 
01834.741	-0.0161	-0.0037	0.9998	0.0000	0.0000	0.0000	1.3348	-0.1758	176.7316	37.3600	46	0	0 
01834.755	-0.0161	-0.0037	0.9998	0.0000	0.0000	0.0000	1.3293	-0.1813	176.7371	37.3600	46	0	0 
01834.755	-0.0161	-0.0037	0.9998	0.0000	0.0000	0.0000	1.3293	-0.1813	176.7426	37.4600	46	0	0 
01834.758	-0.0161	-0.0037	0.9998	0.0000	0.0000	0.0000	1.3239	-0.1868	176.7426	37.4600	46	0	0 
01834.762	-0.0161	-0.0037	0.9998	0.0000	0.0000	0.0000	1.3239	-0.1868	176.7480	37.4700	46	0	0 
01834.771	-0.0161	-0.0037	0.9995	0.0000	0.0000	0.0000	1.3184	-0.1923	176.7480	37.4700	46	0	0 
01834.771	-0.0161	-0.0037	0.9995	0.0000	0.0000	0.0000	1.3129	-0.1978	176.7535	37.4400	45	0	0 
01834.777	-0.0161	-0.0037	0.9995	0.0000	0.0000	0.0000	1.3129	-0.1978	176.7535	37.4400	45	0	0 
01834.785	-0.0161	-0.0037	0.9995	0.0000	0.0000	0.0000	1.3074	-0.2032	176.7590	37.4900	46	0	0 
01834.785	-0.0161	-0.0037	0.9995	0.0000	0.0000	0.0000	1.3074	-0.2032	176.7590	37.4900	46	0	0 
01834.789	-0.0161	-0.0037	0.9995	0.0000	0.0000	0.0000	1.3019	-0.2087	176.7645	37.4600	46	0	0 
01834.800	-0.0161	-0.0037	0.9995	0.0000	0.0000	0.0000	1.3019	-0.2142	176.7645	37.4600	46	0	0 
01834.800	-0.0161	-0.0037	0.9995	0.0000	0.0000	0.0000	1.2964	-0.2142	176.7700	37.4500	46	0	0 
01834.809	-0.0159	-0.0034	0.9993	0.0000	0.0000	0.0000	1.2964	-0.2197	176.7755	37.4500	46	0	0 
01834.814	-0.0159	-0.0034	0.9993	0.0000	0.0000	0.0000	1.2909	-0.2197	176.7755	37.4500	46	0	0 
01834.821	-0.0159	-0.0034	0.9993	0.0000	0.0000	0.0000	1.2909	-0.2252	176.7810	37.4400	45	0	0 
01834.821	-0.0159	-0.0034	0.9993	0.0000	0.0000	0.0000	1.2854	-0.2307	176.7810	37.4400	45	0	0 
01834.829	-0.0159	-0.0034	0.9993	0.0000	0.0000	0.0000	1.2854	-0.2307	176.7865	37.4400	45	0	0 
01834.833	-0.0159	-0.0034	0.9993	0.0000	0.0000	0.0000	1.2799	-0.2362	176.7865	37.4400	46	0	0 
01834.833	-0.0159	-0.0034	0.9993	0.0000	0.0000	0.0000	1.2799	-0.2362	176.7920	37.4600	46	0	0 
01834.844	-0.0159	-0.0034	0.9993	0.0000	0.0000	0.0000	1.2744	-0.2417	176.7920	37.4600	47	0	0 
01834.856	-0.0156	-0.0032	0.9990	0.0000	0.0000	0.0000	1.2689	-0.2417	176.7975	37.4800	47	0	0 
01834.856	-0.0156	-0.0032	0.9990	0.0000	0.0000	0.0000	1.2689	-0.2472	176.7975	37.4800	47	0	0 
01834.866	-0.0156	-0.0032	0.9990	0.0000	0.0000	0.0000	1.2634	-0.2527	176.8030	37.4200	48	0	0 
01834.869	-0.0156	-0.0032	0.9990	0.0000	0.0000	0.0000	1.2634	-0.2527	176.8030	37.4200	48	0	0 
01834.869	-0.0156	-0.0032	0.9990	0.0000	0.0000	0.0000	1.2579	-0.2582	176.8085	37.4400	48	0	0 
01834.871	-0.0156	-0.0032	0.9990	0.0000	0.0000	0.0000	1.2579	-0.2582	176.8085	37.4400	48	0	0 
01834.881	-0.0156	-0.0032	0.9990	0.0000	0.0000	0.0000	1.2524	-0.2637	176.8140	37.4300	48	0	0 
01834.881	-0.0156	-0.0032	0.9990	0.0000	0.0000	0.0000	1.2524	-0.2637	176.8195	37.4300	48	0	0 
01834.887	-0.0154	-0.0032	0.9990	0.0000	0.0000	0.0000	1.2469	-0.2692	176.8195	37.4300	48	0	0 
01834.920	-0.0154	-0.0032	0.9990	0.0000	0.0000	0.0000	1.2469	-0.2747	176.8250	37.4200	48	0	0 
01834.922	-0.0154	-0.0032	0.9990	0.0000	0.0000	0.0000	1.2415	-0.2747	176.8250	37.4200	48	0	0 
01834.922	-0.0154	-0.0032	0.9990	0.0000	0.0000	0.0000	1.2415	-0.2802	176.8304	37.5000	48	0	0 
01834.922	-0.0154	-0.0032	0.9990	0.0000	0.0000	0.0000	1.2360	-0.2802	176.8304	37.5000	47	0	0 
01834.922	-0.0154	-0.0032	0.9990	0.0000	0.0000	0.0000	1.2360	-0.2856	176.8359	37.5000	46	0	0 
01834.922	-0.0154	-0.0032	0.9990	0.0000	0.0000	0.0000	1.2305	-0.2856	176.8359	37.5000	46	0	0 
01834.944	-0.0154	-0.0032	0.9990	0.0000	0.0000	0.0000	1.2305	-0.2911	176.8414	37.4100	46	0	0 
01834.949	-0.0151	-0.0029	0.9988	0.0000	0.0000	0.0000	1.2305	-0.2966	176.8414	37.4100	46	0	0 
01834.949	-0.0151	-0.0029	0.9988	0.0000	0.0000	0.0000	1.2250	-0.2966	176.8469	37.4600	46	0	0 
01834.951	-0.0151	-0.0029	0.9988	0.0000	0.0000	0.0000	1.2250	-0.3021	176.8469	37.4600	46	0	0 
01834.974	-0.0151	-0.0029	0.9988	0.0000	0.0000	0.0000	1.2195	-0.3021	176.8524	37.4700	47	0	0 
01834.974	-0.0151	-0.0029	0.9988	0.0000	0.0000	0.0000	1.2195	-0.3076	176.8524	37.4700	48	0	0 
01834.977	-0.0151	-0.0029	0.9988	0.0000	0.0000	0.0000	1.2140	-0.3076	176.8579	37.4700	48	0	0 
01834.982	-0.0151	-0.0029	0.9988	0.0000	0.0000	0.0000	1.2140	-0.3131	176.8579	37.4700	48	0	0 
01834.982	-0.0151	-0.0029	0.9988	0.0000	0.0000	0.0000	1.2085	-0.3131	176.8634	37.4800	48	0	0 
01834.984	-0.0149	-0.0029	0.9990	0.0000	0.0000	0.0000	1.2085	-0.3186	176.8634	37.4800	47	0	0 
01834.986	-0.0149	-0.0029	0.9990	0.0000	0.0000	0.0000	1.2030	-0.3241	176.8689	37.4800	47	0	0 
01834.988	-0.0149	-0.0029	0.9990	0.0000	0.0000	0.0000	1.2030	-0.3241	176.8689	37.4600	47	0	0 
01834.988	-0.0149	-0.0029	0.9990	0.0000	0.0000	0.0000	1.1975	-0.3296	176.8744	37.4600	46	0	0 
01834.990	-0.0149	-0.0029	0.9990	0.0000	0.0000	0.0000	1.1975	-0.3296	176.8744	37.4600	45	0	0 
01835.001	-0.0149	-0.0029	0.9990	0.0000	0.0000	0.0000	1.1920	-0.3351	176.8799	37.4600	45	0	0 
01835.001	-0.0149	-0.0029	0.9990	0.0000	0.0000	0.0000	1.1920	-0.3351	176.8799	37.5000	44	0	0 
01835.004	-0.0149	-0.0029	0.9990	0.0000	0.0000	0.0000	1.1865	-0.3406	176.8854	37.5000	44	0	0 
01835.007	-0.0149	-0.0029	0.9990	0.0000	0.0000	0.0000	1.1865	-0.3406	176.8854	37.4400	44	0	0 
01835.008	-0.0149	-0.0029	0.9990	0.0000	0.0000	0.0000	1.1865	-0.3461	176.8909	37.4400	44	0	0 
01835.018	-0.0149	-0.0029	0.9990	0.0000	0.0000	0.0000	1.1810	-0.3516	176.8909	37.4500	44	0	0 
01835.024	-0.0149	-0.0029	0.9990	0.0000	0.0000	0.0000	1.1810	-0.3516	176.8909	37.4500	44	0	0 
01835.024	-0.0149	-0.0029	0.9990	0.0000	0.0000	0.0000	1.1755	-0.3571	176.8964	37.5100	45	0	0 
01835.031	-0.0149	-0.0029	0.9990	0.0000	0.0000	0.0000	1.1755	-0.3571	176.8964	37.5100	44	0	0 
01835.041	-0.0149	-0.0029	0.9990	0.0000	0.0000	0.0000	1.1700	-0.3625	176.9019	37.4900	44	0	0 
01835.041	-0.0149	-0.0029	0.9990	0.0000	0.0000	0.0000	1.1700	-0.3625	176.9019	37.4900	44	0	0 
01835.045	-0.0149	-0.0029	0.9993	0.0000	0.0000	0.0000	1.1646	-0.3680	176.9073	37.5100	44	0	0 
01835.058	-0.0149	-0.0029	0.9993	0.0000	0.0000	0.0000	1.1646	-0.3680	176.9073	37.5100	45	0	0 
01835.064	-0.0149	-0.0029	0.9993	0.0000	0.0000	0.0000	1.1646	-0.3735	176.9128	37.5100	45	0	0 
01835.064	-0.0149	-0.0029	0.9993	0.0000	0.0000	0.0000	1.1591	-0.3735	176.9128	37.4700	45	0	0 
01835.066	-0.0149	-0.0029	0.9993	0.0000	0.0000	0.0000	1.1591	-0.3790	176.9183	37.4700	45	0	0 
01835.096	-0.0149	-0.0029	0.9993	0.0000	0.0000	0.0000	1.1536	-0.3790	176.9183	37.5200	44	0	0 
01835.096	-0.0149	-0.0029	0.9993	0.0000	0.0000	0.0000	1.1536	-0.3845	176.9238	37.5200	43	0	0 
01835.098	-0.0149	-0.0029	0.9993	0.0000	0.0000	0.0000	1.1481	-0.3900	176.9238	37.4800	44	0	0 
01835.098	-0.0149	-0.0032	0.9995	0.0000	0.0000	0.0000	1.1481	-0.3900	176.9293	37.4800	44	0	0 
01835.098	-0.0149	-0.0032	0.9995	0.0000	0.0000	0.0000	1.1426	-0.3955	176.9293	37.4300	44	0	0 
01835.098	-0.0149	-0.0032	0.9995	0.0000	0.0000	0.0000	1.1426	-0.3955	176.9293	37.4300	44	0	0 
01835.105	-0.0149	-0.0032	0.9995	0.0000	0.0000	0.0000	1.1426	-0.4010	176.9348	37.4700	44	0	0 
01835.105	-0.0149	-0.0032	0.9995	0.0000	0.0000	0.0000	1.1371	-0.4010	176.9348	37.4700	45	0	0 
01835.112	-0.0149	-0.0032	0.9995	0.0000	0.0000	0.0000	1.1371	-0.4065	176.9403	37.5000	45	0	0 
01835.120	-0.0149	-0.0032	0.9995	0.0000	0.0000	0.0000	1.1316	-0.4065	176.9403	37.5000	45	0	0 
01835.121	-0.0149	-0.0032	0.9995	0.0000	0.0000	0.0000	1.1316	-0.4120	176.9458	37.5000	46	0	0 
01835.123	-0.0149	-0.0032	0.9995	0.0000	0.0000	0.0000	1.1261	-0.4120	176.9458	37.5000	46	0	0 
01835.137	-0.0149	-0.0032	0.9995	0.0000	0.0000	0.0000	1.1261	-0.4175	176.9513	37.4100	46	0	0 
01835.140	-0.0149	-0.0032	0.9995	0.0000	0.0000	0.0000	1.1206	-0.4175	176.9513	37.4100	46	0	0 
01835.140	-0.0149	-0.0032	0.9995	0.0000	0.0000	0.0000	1.1206	-0.4230	176.9568	37.4100	45	0	0 
01835.149	-0.0149	-0.0032	0.9995	0.0000	0.0000	0.0000	1.1206	-0.4230	176.9568	37.4700	45	0	0 
01835.161	-0.0149	-0.0032	0.9995	0.0000	0.0000	0.0000	1.1151	-0.4285	176.9568	37.4700	44	0	0 
01835.161	-0.0149	-0.0032	0.9995	0.0000	0.0000	0.0000	1.1151	-0.4285	176.9623	37.4800	43	0	0 
01835.165	-0.0149	-0.0032	0.9995	0.0000	0.0000	0.0000	1.1096	-0.4340	176.9623	37.4800	43	0	0 
01835.168	-0.0149	-0.0037	0.9998	0.0000	0.0000	0.0000	1.1096	-0.4340	176.9678	37.4500	43	0	0 
01835.168	-0.0149	-0.0037	0.9998	0.0000	0.0000	0.0000	1.1041	-0.4395	176.9678	37.4500	43	0	0 
01835.178	-0.0149	-0.0037	0.9998	0.0000	0.0000	0.0000	1.1041	-0.4395	176.9733	37.4600	43	0	0 
01835.187	-0.0149	-0.0037	0.9998	0.0000	0.0000	0.0000	1.1041	-0.4449	176.9733	37.4600	44	0	0 
01835.187	-0.0149	-0.0037	0.9998	0.0000	0.0000	0.0000	1.0986	-0.4449	176.9733	37.5100	44	0	0 
01835.193	-0.0149	-0.0037	0.9998	0.0000	0.0000	0.0000	1.0986	-0.4504	176.9788	37.5100	44	0	0 
01835.199	-0.0149	-0.0037	0.9998	0.0000	0.0000	0.0000	1.0931	-0.4504	176.9788	37.4700	44	0	0 
01835.199	-0.0149	-0.0037	0.9998	0.0000	0.0000	0.0000	1.0931	-0.4559	176.9843	37.4700	43	0	0 
01835.208	-0.0149	-0.0037	0.9995	0.0000	0.0000	0.0000	1.0876	-0.4559	176.9843	37.5000	43	0	0 
01835.217	-0.0149	-0.0037	0.9995	0.0000	0.0000	0.0000	1.0876	-0.4614	176.9897	37.5000	42	0	0 
01835.217	-0.0149	-0.0037	0.9995	0.0000	0.0000	0.0000	1.0876	-0.4614	176.9897	37.5000	42	0	0 
01835.222	-0.0149	-0.0037	0.9995	0.0000	0.0000	0.0000	1.0822	-0.4669	176.9897	37.5100	41	0	0 
01835.237	-0.0149	-0.0037	0.9995	0.0000	0.0000	0.0000	1.0822	-0.4669	176.9952	37.5100	41	0	0 
01835.239	-0.0149	-0.0037	0.9995	0.0000	0.0000	0.0000	1.0767	-0.4724	176.9952	37.4700	42	0	0 
01835.239	-0.0149	-0.0037	0.9995	0.0000	0.0000	0.0000	1.0767	-0.4724	177.0007	37.4700	43	0	0 
01835.243	-0.0149	-0.0037	0.9995	0.0000	0.0000	0.0000	1.0712	-0.4779	177.0007	37.4500	43	0	0 
01835.252	-0.0149	-0.0039	0.9995	0.0000	0.0000	0.0000	1.0712	-0.4779	177.0062	37.4500	44	0	0 
01835.252	-0.0149	-0.0039	0.9995	0.0000	0.0000	0.0000	1.0712	-0.4779	177.0062	37.4500	45	0	0 
01835.258	-0.0149	-0.0039	0.9995	0.0000	0.0000	0.0000	1.0657	-0.4834	177.0062	37.4500	45	0	0 
01835.274	-0.0149	-0.0039	0.9995	0.0000	0.0000	0.0000	1.0657	-0.4834	177.0117	37.4400	45	0	0 
01835.274	-0.0149	-0.0039	0.9995	0.0000	0.0000	0.0000	1.0602	-0.4889	177.0117	37.4400	45	0	0 
01835.279	-0.0149	-0.0039	0.9995	0.0000	0.0000	0.0000	1.0602	-0.4889	177.0172	37.4000	45	0	0 
01835.281	-0.0149	-0.0039	0.9995	0.0000	0.0000	0.0000	1.0602	-0.4944	177.0172	37.4000	44	0	0 
01835.281	-0.0149	-0.0039	0.9995	0.0000	0.0000	0.0000	1.0547	-0.4944	177.0172	37.4700	42	0	0 
01835.289	-0.0151	-0.0039	0.9993	0.0000	0.0000	0.0000	1.0547	-0.4999	177.0227	37.4700	42	0	0 
01835.293	-0.0151	-0.0039	0.9993	0.0000	0.0000	0.0000	1.0492	-0.4999	177.0227	37.4400	42	0	0 
01835.293	-0.0151	-0.0039	0.9993	0.0000	0.0000	0.0000	1.0492	-0.5054	177.0282	37.4400	42	0	0 
01835.323	-0.0151	-0.0039	0.9993	0.0000	0.0000	0.0000	1.0437	-0.5054	177.0282	37.4400	43	0	0 
01835.325	-0.0151	-0.0039	0.9993	0.0000	0.0000	0.0000	1.0437	-0.5109	177.0282	37.5000	43	0	0 
01835.325	-0.0151	-0.0039	0.9993	0.0000	0.0000	0.0000	1.0437	-0.5109	177.0337	37.5000	44	0	0 
01835.325	-0.0151	-0.0039	0.9993	0.0000	0.0000	0.0000	1.0382	-0.5109	177.0337	37.4800	44	0	0 
01835.325	-0.0151	-0.0039	0.9993	0.0000	0.0000	0.0000	1.0382	-0.5164	177.0392	37.4800	45	0	0 
01835.328	-0.0156	-0.0039	0.9995	0.0000	0.0000	0.0000	1.0327	-0.5164	177.0392	37.4900	45	0	0 
01835.328	-0.0156	-0.0039	0.9995	0.0000	0.0000	0.0000	1.0327	-0.5219	177.0392	37.4900	45	0	0 
01835.341	-0.0156	-0.0039	0.9995	0.0000	0.0000	0.0000	1.0327	-0.5219	177.0447	37.3600	45	0	0 
01835.343	-0.0156	-0.0039	0.9995	0.0000	0.0000	0.0000	1.0272	-0.5273	177.0447	37.3600	46	0	0 
01835.343	-0.0156	-0.0039	0.9995	0.0000	0.0000	0.0000	1.0272	-0.5273	177.0502	37.4500	46	0	0 
01835.353	-0.0156	-0.0039	0.9995	0.0000	0.0000	0.0000	1.0217	-0.5273	177.0502	37.4500	46	0	0 
01835.359	-0.0156	-0.0039	0.9995	0.0000	0.0000	0.0000	1.0217	-0.5328	177.0502	37.4400	45	0	0 
01835.359	-0.0156	-0.0039	0.9995	0.0000	0.0000	0.0000	1.0217	-0.5328	177.0557	37.4400	45	0	0 
01835.368	-0.0159	-0.0039	0.9995	0.0000	0.0000	0.0000	1.0162	-0.5383	177.0557	37.4400	45	0	0 
01835.376	-0.0159	-0.0039	0.9995	0.0000	0.0000	0.0000	1.0162	-0.5383	177.0612	37.4400	45	0	0 
01835.376	-0.0159	-0.0039	0.9995	0.0000	0.0000	0.0000	1.0107	-0.5383	177.0612	37.4400	46	0	0 
01835.379	-0.0159	-0.0039	0.9995	0.0000	0.0000	0.0000	1.0107	-0.5438	177.0612	37.4400	46	0	0 
01835.393	-0.0159	-0.0039	0.9995	0.0000	0.0000	0.0000	1.0107	-0.5438	177.0667	37.4400	45	0	0 
01835.398	-0.0159	-0.0039	0.9995	0.0000	0.0000	0.0000	1.0052	-0.5493	177.0667	37.4800	45	0	0 
01835.398	-0.0159	-0.0039	0.9995	0.0000	0.0000	0.0000	1.0052	-0.5493	177.0721	37.4800	45	0	0 
01835.403	-0.0159	-0.0039	0.9995	0.0000	0.0000	0.0000	0.9998	-0.5548	177.0721	37.4600	45	0	0 
01835.411	-0.0159	-0.0042	0.9995	0.0000	0.0000	0.0000	0.9998	-0.5548	177.0721	37.4600	44	0	0 
01835.411	-0.0159	-0.0042	0.9995	0.0000	0.0000	0.0000	0.9998	-0.5548	177.0776	37.5500	44	0	0 
01835.418	-0.0159	-0.0042	0.9995	0.0000	0.0000	0.0000	0.9943	-0.5603	177.0776	37.5500	44	0	0 
01835.424	-0.0159	-0.0042	0.9995	0.0000	0.0000	0.0000	0.9943	-0.5603	177.0776	37.4500	45	0	0 
01835.424	-0.0159	-0.0042	0.9995	0.0000	0.0000	0.0000	0.9888	-0.5658	177.0831	37.4500	44	0	0 
01835.433	-0.0159	-0.0042	0.9995	0.0000	0.0000	0.0000	0.9888	-0.5658	177.0831	37.4100	43	0	0 
01835.500	-0.0159	-0.0042	0.9995	0.0000	0.0000	0.0000	0.9888	-0.5658	177.0886	37.4100	44	0	0 
01835.500	-0.0159	-0.0042	0.9995	0.0000	0.0000	0.0000	0.9833	-0.5713	177.0886	37.4800	44	0	0 
01835.502	-0.0161	-0.0039	0.9995	0.0000	0.0000	0.0000	0.9833	-0.5713	177.0886	37.4800	44	0	0 
01835.502	-0.0161	-0.0039	0.9995	0.0000	0.0000	0.0000	0.9833	-0.5713	177.0941	37.5100	44	0	0 
01835.502	-0.0161	-0.0039	0.9995	0.0000	0.0000	0.0000	0.9778	-0.5768	177.0941	37.5100	44	0	0 
01835.502	-0.0161	-0.0039	0.9995	0.0000	0.0000	0.0000	0.9778	-0.5768	177.0941	37.4800	44	0	0 
01835.502	-0.0161	-0.0039	0.9995	0.0000	0.0000	0.0000	0.9723	-0.5823	177.0996	37.4800	44	0	0 
01835.504	-0.0161	-0.0039	0.9995	0.0000	0.0000	0.0000	0.9723	-0.5823	177.0996	37.4800	44	0	0 
01835.504	-0.0161	-0.0039	0.9995	0.0000	0.0000	0.0000	0.9723	-0.5823	177.1051	37.3800	44	0	0 
01835.508	-0.0161	-0.0039	0.9995	0.0000	0.0000	0.0000	0.9668	-0.5878	177.1051	37.3800	45	0	0 
01835.513	-0.0159	-0.0039	0.9995	0.0000	0.0000	0.0000	0.9668	-0.5878	177.1051	37.5000	46	0	0 
01835.513	-0.0159	-0.0039	0.9995	0.0000	0.0000	0.0000	0.9668	-0.5933	177.1106	37.5000	46	0	0 
01835.518	-0.0159	-0.0039	0.9995	0.0000	0.0000	0.0000	0.9613	-0.5933	177.1106	37.4300	46	0	0 
01835.520	-0.0159	-0.0039	0.9995	0.0000	0.0000	0.0000	0.9613	-0.5933	177.1106	37.4300	46	0	0 
01835.520	-0.0159	-0.0039	0.9995	0.0000	0.0000	0.0000	0.9558	-0.5988	177.1161	37.4300	46	0	0 
01835.526	-0.0159	-0.0039	0.9995	0.0000	0.0000	0.0000	0.9558	-0.5988	177.1161	37.4300	45	0	0 
01835.528	-0.0159	-0.0039	0.9995	0.0000	0.0000	0.0000	0.9558	-0.5988	177.1161	37.5100	44	0	0 
01835.528	-0.0159	-0.0039	0.9995	0.0000	0.0000	0.0000	0.9503	-0.6042	177.1216	37.5100	45	0	0 
01835.530	-0.0159	-0.0037	0.9995	0.0000	0.0000	0.0000	0.9503	-0.6042	177.1216	37.4300	46	0	0 
01835.536	-0.0159	-0.0037	0.9995	0.0000	0.0000	0.0000	0.9503	-0.6097	177.1216	37.4300	45	0	0 
01835.536	-0.0159	-0.0037	0.9995	0.0000	0.0000	0.0000	0.9448	-0.6097	177.1271	37.4400	44	0	0 
01835.543	-0.0159	-0.0037	0.9995	0.0000	0.0000	0.0000	0.9448	-0.6097	177.1271	37.4400	44	0	0 
01835.549	-0.0159	-0.0037	0.9995	0.0000	0.0000	0.0000	0.9448	-0.6152	177.1326	37.4400	44	0	0 
01835.556	-0.0159	-0.0037	0.9995	0.0000	0.0000	0.0000	0.9393	-0.6152	177.1326	37.3900	45	0	0 
01835.556	-0.0159	-0.0037	0.9995	0.0000	0.0000	0.0000	0.9393	-0.6152	177.1326	37.3900	46	0	0 
01835.589	-0.0159	-0.0037	0.9995	0.0000	0.0000	0.0000	0.9393	-0.6207	177.1381	37.4600	45	0	0 
01835.591	-0.0159	-0.0034	0.9995	0.0000	0.0000	0.0000	0.9338	-0.6207	177.1381	37.4600	44	0	0 
01835.591	-0.0159	-0.0034	0.9995	0.0000	0.0000	0.0000	0.9338	-0.6207	177.1381	37.4700	44	0	0 
01835.596	-0.0159	-0.0034	0.9995	0.0000	0.0000	0.0000	0.9338	-0.6262	177.1436	37.4700	45	0	0 
01835.598	-0.0159	-0.0034	0.9995	0.0000	0.0000	0.0000	0.9283	-0.6262	177.1436	37.4600	45	0	0 
01835.598	-0.0159	-0.0034	0.9995	0.0000	0.0000	0.0000	0.9283	-0.6317	177.1436	37.4600	46	0	0 
01835.600	-0.0159	-0.0034	0.9995	0.0000	0.0000	0.0000	0.9283	-0.6317	177.1490	37.5100	45	0	0 
01835.602	-0.0159	-0.0034	0.9995	0.0000	0.0000	0.0000	0.9229	-0.6317	177.1490	37.5100	45	0	0 
01835.602