Time	ax	ay	az	wx	wy	wz	AngleX	AngleY	AngleZ	T	hx	hy	hz 
02013.607	0.0547	-0.0144	0.9968	0.0000	0.0000	0.0000	-0.3186	-5.2899	177.7423	37.6000	44	0	0 
02013.607	0.0547	-0.0144	0.9968	0.0000	0.0000	0.0000	-0.3186	-5.2899	177.7423	37.5900	43	0	0 
02013.616	0.0547	-0.0144	0.9968	0.0000	0.0000	0.0000	-0.3186	-5.2899	177.7423	37.5900	43	0	0 
02013.621	0.0547	-0.0144	0.9968	0.0000	0.0000	0.0000	-0.3186	-5.2954	177.7423	37.5900	43	0	0 
02013.624	0.0547	-0.0144	0.9968	0.0000	0.0000	0.0000	-0.3186	-5.2954	177.7423	37.5900	43	0	0 
02013.624	0.0547	-0.0142	0.9971	0.0000	0.0000	0.0000	-0.3186	-5.2954	177.7423	37.5900	43	0	0 
02013.655	0.0547	-0.0142	0.9971	0.0000	0.0000	0.0000	-0.3186	-5.2954	177.7423	37.5900	42	0	0 
02013.657	0.0547	-0.0142	0.9971	0.0000	0.0000	0.0000	-0.3186	-5.2954	177.7423	37.5900	42	0	0 
02013.657	0.0547	-0.0142	0.9971	0.0000	0.0000	0.0000	-0.3186	-5.2954	177.7423	37.5700	42	0	0 
02013.657	0.0547	-0.0142	0.9971	0.0000	0.0000	0.0000	-0.3186	-5.2954	177.7423	37.5700	42	0	0 
02013.657	0.0547	-0.0142	0.9971	0.0000	0.0000	0.0000	-0.3186	-5.2954	177.7423	37.5600	43	0	0 
02013.657	0.0547	-0.0142	0.9971	0.0000	0.0000	0.0000	-0.3186	-5.2954	177.7423	37.5600	43	0	0 
02013.659	0.0547	-0.0142	0.9971	0.0000	0.0000	0.0000	-0.3186	-5.2954	177.7423	37.5700	42	0	0 
02013.675	0.0544	-0.0144	0.9978	0.0000	0.0000	0.0000	-0.3186	-5.2954	177.7423	37.5700	41	0	0 
02013.675	0.0544	-0.0144	0.9978	0.0000	0.0000	0.0000	-0.3186	-5.2954	177.7423	37.5600	42	0	0 
02013.678	0.0544	-0.0144	0.9978	0.0000	0.0000	0.0000	-0.3186	-5.2954	177.7423	37.5600	42	0	0 
02013.688	0.0544	-0.0144	0.9978	0.0000	0.0000	0.0000	-0.3186	-5.2954	177.7423	37.5900	41	0	0 
02013.689	0.0544	-0.0144	0.9978	0.0000	0.0000	0.0000	-0.3186	-5.2954	177.7423	37.5900	41	0	0 
02013.691	0.0544	-0.0144	0.9978	0.0000	0.0000	0.0000	-0.3186	-5.2954	177.7423	37.5400	41	0	0 
02013.704	0.0544	-0.0144	0.9978	0.0000	0.0000	0.0000	-0.3186	-5.2954	177.7423	37.5400	41	0	0 
02013.707	0.0544	-0.0144	0.9978	0.0000	0.0000	0.0000	-0.3186	-5.2954	177.7423	37.5800	41	0	0 
02013.707	0.0552	-0.0139	0.9971	0.0000	0.0000	0.0000	-0.3186	-5.2954	177.7423	37.5800	41	0	0 
02013.719	0.0552	-0.0139	0.9971	0.0000	0.0000	0.0000	-0.3186	-5.2954	177.7423	37.5400	41	0	0 
02013.722	0.0552	-0.0139	0.9971	0.0000	0.0000	0.0000	-0.3186	-5.2954	177.7423	37.5400	42	0	0 
02013.722	0.0552	-0.0139	0.9971	0.0000	0.0000	0.0000	-0.3186	-5.2954	177.7423	37.5400	42	0	0 
02013.724	0.0552	-0.0139	0.9971	0.0000	0.0000	0.0000	-0.3186	-5.2954	177.7423	37.6000	41	0	0 
02013.734	0.0552	-0.0139	0.9971	0.0000	0.0000	0.0000	-0.3186	-5.2954	177.7423	37.6000	42	0	0 
02013.734	0.0552	-0.0139	0.9971	0.0000	0.0000	0.0000	-0.3186	-5.2954	177.7423	37.4900	43	0	0 
02013.740	0.0552	-0.0139	0.9971	0.0000	0.0000	0.0000	-0.3186	-5.2954	177.7423	37.4900	43	0	0 
02013.752	0.0547	-0.0142	0.9973	0.0000	0.0000	0.0000	-0.3186	-5.2954	177.7423	37.5400	43	0	0 
02013.752	0.0547	-0.0142	0.9973	0.0000	0.0000	0.0000	-0.3186	-5.2954	177.7423	37.5400	43	0	0 
02013.758	0.0547	-0.0142	0.9973	0.0000	0.0000	0.0000	-0.3186	-5.2954	177.7423	37.5600	43	0	0 
02013.762	0.0547	-0.0142	0.9973	0.0000	0.0000	0.0000	-0.3186	-5.2954	177.7423	37.5600	43	0	0 
02013.770	0.0547	-0.0142	0.9973	0.0000	0.0000	0.0000	-0.3186	-5.2954	177.7423	37.5600	44	0	0 
02013.770	0.0547	-0.0142	0.9973	0.0000	0.0000	0.0000	-0.3186	-5.2954	177.7423	37.5600	44	0	0 
02013.779	0.0547	-0.0142	0.9973	0.0000	0.0000	0.0000	-0.3186	-5.2954	177.7423	37.6000	43	0	0 
02013.786	0.0547	-0.0142	0.9973	0.0000	0.0000	0.0000	-0.3186	-5.2954	177.7423	37.6000	43	0	0 
02013.786	0.0544	-0.0144	0.9973	0.0000	0.0000	0.0000	-0.3186	-5.2954	177.7423	37.5300	43	0	0 
02013.795	0.0544	-0.0144	0.9973	0.0000	0.0000	0.0000	-0.3186	-5.2954	177.7423	37.5300	44	0	0 
02013.801	0.0544	-0.0144	0.9973	0.0000	0.0000	0.0000	-0.3186	-5.2954	177.7423	37.5300	43	0	0 
02013.801	0.0544	-0.0144	0.9973	0.0000	0.0000	0.0000	-0.3186	-5.2954	177.7423	37.5800	43	0	0 
02013.803	0.0544	-0.0144	0.9973	0.0000	0.0000	0.0000	-0.3186	-5.2954	177.7423	37.5800	43	0	0 
02013.817	0.0544	-0.0144	0.9973	0.0000	0.0000	0.0000	-0.3186	-5.2954	177.7423	37.5700	43	0	0 
02013.817	0.0544	-0.0144	0.9973	0.0000	0.0000	0.0000	-0.3186	-5.2954	177.7423	37.5700	43	0	0 
02013.822	0.0544	-0.0144	0.9973	0.0000	0.0000	0.0000	-0.3186	-5.2954	177.7423	37.5600	43	0	0 
02013.829	0.0547	-0.0144	0.9971	0.0000	0.0000	0.0000	-0.3186	-5.2954	177.7423	37.5600	43	0	0 
02013.839	0.0547	-0.0144	0.9971	0.0000	0.0000	0.0000	-0.3186	-5.2954	177.7423	37.6400	42	0	0 
02013.839	0.0547	-0.0144	0.9971	0.0000	0.0000	0.0000	-0.3186	-5.2954	177.7423	37.6400	42	0	0 
02013.842	0.0547	-0.0144	0.9971	0.0000	0.0000	0.0000	-0.3186	-5.2954	177.7423	37.6000	42	0	0 
02013.842	0.0547	-0.0144	0.9971	0.0000	0.0000	0.0000	-0.3186	-5.2954	177.7423	37.6000	42	0	0 
02013.851	0.0547	-0.0144	0.9971	0.0000	0.0000	0.0000	-0.3186	-5.2954	177.7423	37.5800	42	0	0 
02013.883	0.0547	-0.0144	0.9971	0.0000	0.0000	0.0000	-0.3186	-5.2954	177.7423	37.5800	42	0	0 
02013.885	0.0547	-0.0144	0.9971	0.0000	0.0000	0.0000	-0.3186	-5.2954	177.7423	37.5700	42	0	0 
02013.885	0.0549	-0.0142	0.9971	0.0000	0.0000	0.0000	-0.3186	-5.2954	177.7423	37.5700	43	0	0 
02013.885	0.0549	-0.0142	0.9971	0.0000	0.0000	0.0000	-0.3186	-5.3009	177.7423	37.5600	43	0	0 
02013.885	0.0549	-0.0142	0.9971	0.0000	0.0000	0.0000	-0.3186	-5.3009	177.7423	37.5600	43	0	0 
02013.885	0.0549	-0.0142	0.9971	0.0000	0.0000	0.0000	-0.3186	-5.3009	177.7423	37.5600	43	0	0 
02013.885	0.0549	-0.0142	0.9971	0.0000	0.0000	0.0000	-0.3186	-5.3009	177.7423	37.5900	43	0	0 
02013.901	0.0549	-0.0142	0.9971	0.0000	0.0000	0.0000	-0.3186	-5.3009	177.7423	37.5900	43	0	0 
02013.901	0.0549	-0.0142	0.9971	0.0000	0.0000	0.0000	-0.3186	-5.3009	177.7423	37.5800	43	0	0 
02013.903	0.0549	-0.0142	0.9971	0.0000	0.0000	0.0000	-0.3186	-5.3009	177.7423	37.5800	43	0	0 
02013.909	0.0542	-0.0142	0.9971	0.0000	0.0000	0.0000	-0.3186	-5.3009	177.7423	37.6200	43	0	0 
02013.909	0.0542	-0.0142	0.9971	0.0000	0.0000	0.0000	-0.3131	-5.3009	177.7423	37.6200	44	0	0 
02013.918	0.0542	-0.0142	0.9971	0.0000	0.0000	0.0000	-0.3131	-5.3009	177.7423	37.5600	44	0	0 
02013.922	0.0542	-0.0142	0.9971	0.0000	0.0000	0.0000	-0.3131	-5.3009	177.7423	37.5600	44	0	0 
02013.932	0.0542	-0.0142	0.9971	0.0000	0.0000	0.0000	-0.3131	-5.3009	177.7423	37.5400	45	0	0 
02013.932	0.0542	-0.0142	0.9971	0.0000	0.0000	0.0000	-0.3131	-5.3009	177.7423	37.5400	45	0	0 
02013.960	0.0542	-0.0142	0.9971	0.0000	0.0000	0.0000	-0.3131	-5.3009	177.7423	37.5700	45	0	0 
02013.965	0.0542	-0.0142	0.9971	0.0000	0.0000	0.0000	-0.3131	-5.3009	177.7423	37.5700	44	0	0 
02013.965	0.0542	-0.0146	0.9971	0.0000	0.0000	0.0000	-0.3131	-5.3009	177.7423	37.5600	44	0	0 
02013.970	0.0542	-0.0146	0.9971	0.0000	0.0000	0.0000	-0.3131	-5.3009	177.7423	37.5600	44	0	0 
02013.973	0.0542	-0.0146	0.9971	0.0000	0.0000	0.0000	-0.3131	-5.3009	177.7423	37.5600	44	0	0 
02013.973	0.0542	-0.0146	0.9971	0.0000	0.0000	0.0000	-0.3131	-5.3009	177.7423	37.5600	43	0	0 
02013.975	0.0542	-0.0146	0.9971	0.0000	0.0000	0.0000	-0.3131	-5.3009	177.7423	37.5600	44	0	0 
02013.978	0.0542	-0.0146	0.9971	0.0000	0.0000	0.0000	-0.3131	-5.3009	177.7423	37.5900	44	0	0 
02013.978	0.0542	-0.0146	0.9971	0.0000	0.0000	0.0000	-0.3131	-5.3009	177.7423	37.5900	44	0	0 
02013.981	0.0542	-0.0146	0.9971	0.0000	0.0000	0.0000	-0.3131	-5.3009	177.7423	37.5600	45	0	0 
02013.990	0.0537	-0.0146	0.9971	0.0000	0.0000	0.0000	-0.3131	-5.3009	177.7423	37.5600	45	0	0 
02013.998	0.0537	-0.0146	0.9971	0.0000	0.0000	0.0000	-0.3131	-5.3009	177.7423	37.5600	45	0	0 
02013.998	0.0537	-0.0146	0.9971	0.0000	0.0000	0.0000	-0.3131	-5.3009	177.7423	37.5600	45	0	0 
02014.004	0.0537	-0.0146	0.9971	0.0000	0.0000	0.0000	-0.3131	-5.3009	177.7423	37.5900	45	0	0 
02014.008	0.0537	-0.0146	0.9971	0.0000	0.0000	0.0000	-0.3131	-5.3009	177.7423	37.5900	45	0	0 
02014.008	0.0537	-0.0146	0.9971	0.0000	0.0000	0.0000	-0.3131	-5.3009	177.7423	37.5700	44	0	0 
02014.024	0.0537	-0.0146	0.9971	0.0000	0.0000	0.0000	-0.3131	-5.3009	177.7423	37.5700	43	0	0 
02014.033	0.0537	-0.0146	0.9971	0.0000	0.0000	0.0000	-0.3131	-5.3009	177.7423	37.5300	43	0	0 
02014.033	0.0530	-0.0151	0.9976	0.0000	0.0000	0.0000	-0.3186	-5.3009	177.7423	37.5300	44	0	0 
02014.035	0.0530	-0.0151	0.9976	0.0000	0.0000	0.0000	-0.3186	-5.3009	177.7423	37.6000	43	0	0 
02014.060	0.0530	-0.0151	0.9976	0.0000	0.0000	0.0000	-0.3186	-5.3009	177.7423	37.6000	43	0	0 
02014.060	0.0530	-0.0151	0.9976	0.0000	0.0000	0.0000	-0.3186	-5.2954	177.7423	37.5900	43	0	0 
02014.062	0.0530	-0.0151	0.9976	0.0000	0.0000	0.0000	-0.3186	-5.2954	177.7423	37.5900	43	0	0 
02014.062	0.0530	-0.0151	0.9976	0.0000	0.0000	0.0000	-0.3186	-5.2954	177.7423	37.5900	42	0	0 
02014.062	0.0530	-0.0151	0.9976	0.0000	0.0000	0.0000	-0.3186	-5.2954	177.7423	37.5500	41	0	0 
02014.062	0.0530	-0.0151	0.9976	0.0000	0.0000	0.0000	-0.3186	-5.2954	177.7423	37.5500	41	0	0 
02014.074	0.0532	-0.0149	0.9973	0.0000	0.0000	0.0000	-0.3186	-5.2954	177.7423	37.5900	40	0	0 
02014.076	0.0532	-0.0149	0.9973	0.0000	0.0000	0.0000	-0.3186	-5.2954	177.7423	37.5900	40	0	0 
02014.076	0.0532	-0.0149	0.9973	0.0000	0.0000	0.0000	-0.3186	-5.2954	177.7423	37.5900	40	0	0 
02014.084	0.0532	-0.0149	0.9973	0.0000	0.0000	0.0000	-0.3186	-5.2954	177.7423	37.5900	41	0	0 
02014.090	0.0532	-0.0149	0.9973	0.0000	0.0000	0.0000	-0.3186	-5.2954	177.7423	37.5400	41	0	0 
02014.090	0.0532	-0.0149	0.9973	0.0000	0.0000	0.0000	-0.3186	-5.2954	177.7423	37.5400	41	0	0 
02014.100	0.0532	-0.0149	0.9973	0.0000	0.0000	0.0000	-0.3186	-5.2954	177.7423	37.5500	41	0	0 
02014.106	0.0532	-0.0149	0.9973	0.0000	0.0000	0.0000	-0.3186	-5.2954	177.7423	37.5500	41	0	0 
02014.106	0.0532	-0.0151	0.9973	0.0000	0.0000	0.0000	-0.3186	-5.2954	177.7423	37.5600	42	0	0 
02014.113	0.0532	-0.0151	0.9973	0.0000	0.0000	0.0000	-0.3186	-5.2954	177.7423	37.5600	43	0	0 
02014.119	0.0532	-0.0151	0.9973	0.0000	0.0000	0.0000	-0.3186	-5.2954	177.7423	37.6100	43	0	0 
02014.119	0.0532	-0.0151	0.9973	0.0000	0.0000	0.0000	-0.3186	-5.2954	177.7423	37.6100	43	0	0 
02014.128	0.0532	-0.0151	0.9973	0.0000	0.0000	0.0000	-0.3186	-5.2954	177.7423	37.6100	43	0	0 
02014.139	0.0532	-0.0151	0.9973	0.0000	0.0000	0.0000	-0.3186	-5.2954	177.7423	37.6000	43	0	0 
02014.139	0.0532	-0.0151	0.9973	0.0000	0.0000	0.0000	-0.3186	-5.2954	177.7423	37.6000	42	0	0 
02014.141	0.0532	-0.0151	0.9973	0.0000	0.0000	0.0000	-0.3186	-5.2954	177.7423	37.5800	43	0	0 
02014.149	0.0532	-0.0151	0.9973	0.0000	0.0000	0.0000	-0.3186	-5.2954	177.7423	37.5800	44	0	0 
02014.156	0.0532	-0.0151	0.9973	0.0000	0.0000	0.0000	-0.3186	-5.2954	177.7423	37.5600	44	0	0 
02014.156	0.0532	-0.0151	0.9973	0.0000	0.0000	0.0000	-0.3186	-5.2954	177.7423	37.5600	44	0	0 
02014.164	0.0532	-0.0151	0.9973	0.0000	0.0000	0.0000	-0.3186	-5.2954	177.7423	37.6200	44	0	0 
02014.171	0.0532	-0.0151	0.9973	0.0000	0.0000	0.0000	-0.3186	-5.2954	177.7423	37.6200	44	0	0 
02014.171	0.0532	-0.0151	0.9973	0.0000	0.0000	0.0000	-0.3186	-5.2954	177.7423	37.5400	43	0	0 
02014.180	0.0532	-0.0151	0.9973	0.0000	0.0000	0.0000	-0.3186	-5.2954	177.7423	37.5400	42	0	0 
02014.183	0.0532	-0.0151	0.9973	0.0000	0.0000	0.0000	-0.3186	-5.2954	177.7423	37.6200	42	0	0 
02014.183	0.0540	-0.0146	0.9973	0.0000	0.0000	0.0000	-0.3186	-5.2954	177.7423	37.6200	41	0	0 
02014.193	0.0540	-0.0146	0.9973	0.0000	0.0000	0.0000	-0.3186	-5.2954	177.7423	37.5800	41	0	0 
02014.200	0.0540	-0.0146	0.9973	0.0000	0.0000	0.0000	-0.3186	-5.2954	177.7423	37.5800	40	0	0 
02014.200	0.0540	-0.0146	0.9973	0.0000	0.0000	0.0000	-0.3186	-5.2954	177.7423	37.5700	40	0	0 
02014.209	0.0540	-0.0146	0.9973	0.0000	0.0000	0.0000	-0.3186	-5.2954	177.7423	37.5700	41	0	0 
02014.219	0.0540	-0.0146	0.9973	0.0000	0.0000	0.0000	-0.3186	-5.2954	177.7423	37.5700	40	0	0 
02014.219	0.0540	-0.0146	0.9973	0.0000	0.0000	0.0000	-0.3186	-5.2954	177.7423	37.5700	39	0	0 
02014.224	0.0540	-0.0146	0.9973	0.0000	0.0000	0.0000	-0.3186	-5.2954	177.7423	37.5700	39	0	0 
02014.227	0.0549	-0.0149	0.9973	0.0000	0.0000	0.0000	-0.3186	-5.2954	177.7423	37.5600	38	0	0 
02014.237	0.0549	-0.0149	0.9973	0.0000	0.0000	0.0000	-0.3186	-5.2954	177.7423	37.5600	38	0	0 
02014.237	0.0549	-0.0149	0.9973	0.0000	0.0000	0.0000	-0.3186	-5.2954	177.7423	37.5500	39	0	0 
02014.244	0.0549	-0.0149	0.9973	0.0000	0.0000	0.0000	-0.3186	-5.2954	177.7423	37.5500	40	0	0 
02014.251	0.0549	-0.0149	0.9973	0.0000	0.0000	0.0000	-0.3186	-5.2954	177.7423	37.6100	40	0	0 
02014.251	0.0549	-0.0149	0.9973	0.0000	0.0000	0.0000	-0.3186	-5.2954	177.7423	37.6100	40	0	0 
02014.262	0.0549	-0.0149	0.9973	0.0000	0.0000	0.0000	-0.3186	-5.2954	177.7423	37.6100	40	0	0 
02014.287	0.0549	-0.0149	0.9973	0.0000	0.0000	0.0000	-0.3186	-5.2954	177.7423	37.6100	41	0	0 
02014.287	0.3416	-0.0564	1.0618	0.0000	0.0000	0.0000	-0.3241	-5.3394	177.7368	37.6300	41	0	0 
02014.289	0.3416	-0.0564	1.0618	0.0000	0.0000	0.0000	-0.3296	-5.3833	177.7368	37.6300	41	0	0 
02014.289	0.3416	-0.0564	1.0618	0.0000	0.0000	0.0000	-0.3406	-5.4272	177.7368	37.5700	39	0	0 
02014.289	0.3416	-0.0564	1.0618	0.0000	0.0000	0.0000	-0.3461	-5.4712	177.7368	37.5700	38	0	0 
02014.289	0.3416	-0.0564	1.0618	0.0000	0.0000	0.0000	-0.3516	-5.5151	177.7313	37.5600	37	0	0 
02014.295	0.3416	-0.0564	1.0618	0.0000	0.0000	0.0000	-0.3571	-5.5591	177.7313	37.5600	37	0	0 
02014.295	0.3416	-0.0564	1.0618	0.0000	0.0000	0.0000	-0.3625	-5.5975	177.7313	37.5600	36	0	0 
02014.298	0.3416	-0.0564	1.0618	0.0000	0.0000	0.0000	-0.3680	-5.6415	177.7313	37.6000	36	0	0 
02014.311	0.7764	-0.1277	1.0442	0.0000	-1.2817	0.0610	-0.3845	-5.7458	177.7258	37.6000	35	0	0 
02014.311	0.7764	-0.1277	1.0442	0.0000	-1.2817	0.0610	-0.4065	-5.8502	177.7203	37.5700	34	0	0 
02014.316	0.7764	-0.1277	1.0442	0.0000	-1.2817	0.0610	-0.4230	-5.9546	177.7148	37.5700	34	0	0 
02014.326	0.7764	-0.1277	1.0442	0.0000	-1.2817	0.0610	-0.4395	-6.0590	177.7094	37.6300	34	0	0 
02014.334	0.7764	-0.1277	1.0442	0.0000	-1.2817	0.0610	-0.4559	-6.1578	177.7039	37.6300	34	0	0 
02014.334	0.7764	-0.1277	1.0442	0.0000	-1.2817	0.0610	-0.4724	-6.2622	177.6984	37.5700	34	0	0 
02014.340	0.7764	-0.1277	1.0442	0.0000	-1.2817	0.0610	-0.4889	-6.3611	177.6929	37.5700	34	0	0 
02014.345	0.7764	-0.1277	1.0442	0.0000	-1.2817	0.0610	-0.5054	-6.4655	177.6874	37.6100	33	0	0 
02014.345	1.4409	-0.2227	1.0000	0.1831	-4.2725	0.1221	-0.5328	-6.6302	177.6709	37.6100	33	0	0 
02014.351	1.4409	-0.2227	1.0000	0.1831	-4.2725	0.1221	-0.5603	-6.8005	177.6544	37.5900	32	0	0 
02014.361	1.4409	-0.2227	1.0000	0.1831	-4.2725	0.1221	-0.5878	-6.9653	177.6379	37.5900	33	0	0 
02014.361	1.4409	-0.2227	1.0000	0.1831	-4.2725	0.1221	-0.6152	-7.1301	177.6270	37.6000	33	0	0 
02014.365	1.4409	-0.2227	1.0000	0.1831	-4.2725	0.1221	-0.6482	-7.2949	177.6105	37.6000	33	0	0 
02014.383	1.4409	-0.2227	1.0000	0.1831	-4.2725	0.1221	-0.6757	-7.4597	177.5940	37.6000	34	0	0 
02014.383	1.4409	-0.2227	1.0000	0.1831	-4.2725	0.1221	-0.7031	-7.6245	177.5830	37.6000	35	0	0 
02014.385	1.4409	-0.2227	1.0000	0.1831	-4.2725	0.1221	-0.7306	-7.7838	177.5665	37.6000	35	0	0 
02014.390	2.1196	-0.3267	0.9009	0.6104	-7.3853	0.1221	-0.7690	-7.9926	177.5391	37.6700	36	0	0 
02014.390	2.1196	-0.3267	0.9009	0.6104	-7.3853	0.1221	-0.8130	-8.1958	177.5116	37.6700	36	0	0 
02014.398	2.1196	-0.3267	0.9009	0.6104	-7.3853	0.1221	-0.8514	-8.4045	177.4841	37.5600	37	0	0 
02014.404	2.1196	-0.3267	0.9009	0.6104	-7.3853	0.1221	-0.8954	-8.6078	177.4567	37.5600	38	0	0 
02014.411	2.1196	-0.3267	0.9009	0.6104	-7.3853	0.1221	-0.9338	-8.8110	177.4292	37.5300	39	0	0 
02014.411	2.1196	-0.3267	0.9009	0.6104	-7.3853	0.1221	-0.9723	-9.0198	177.4017	37.5300	39	0	0 
02014.421	2.1196	-0.3267	0.9009	0.6104	-7.3853	0.1221	-1.0162	-9.2230	177.3743	37.5100	40	0	0 
02014.429	2.1196	-0.3267	0.9009	0.6104	-7.3853	0.1221	-1.0547	-9.4208	177.3468	37.5100	41	0	0 
02014.429	2.5129	-0.3757	0.8262	1.0986	-8.1177	-0.1221	-1.0986	-9.6405	177.3138	37.6300	42	0	0 
02014.435	2.5129	-0.3757	0.8262	1.0986	-8.1177	-0.1221	-1.1481	-9.8547	177.2754	37.6300	43	0	0 
02014.438	2.5129	-0.3757	0.8262	1.0986	-8.1177	-0.1221	-1.1920	-10.0690	177.2369	37.5800	44	0	0 
02014.438	2.5129	-0.3757	0.8262	1.0986	-8.1177	-0.1221	-1.2360	-10.2832	177.2040	37.5800	44	0	0 
02014.465	2.5129	-0.3757	0.8262	1.0986	-8.1177	-0.1221	-1.2799	-10.4974	177.1655	37.5700	45	0	0 
02014.467	2.5129	-0.3757	0.8262	1.0986	-8.1177	-0.1221	-1.3239	-10.7117	177.1326	37.5700	45	0	0 
02014.467	2.5129	-0.3757	0.8262	1.0986	-8.1177	-0.1221	-1.3733	-10.9259	177.0996	37.5700	45	0	0 
02014.467	2.5129	-0.3757	0.8262	1.0986	-8.1177	-0.1221	-1.4172	-11.1401	177.0612	37.5800	46	0	0 
02014.470	2.4622	-0.3638	0.6985	0.9766	-4.5166	-0.9766	-1.4667	-11.3379	177.0172	37.5800	47	0	0 
02014.474	2.4622	-0.3638	0.6985	0.9766	-4.5166	-0.9766	-1.5161	-11.5356	176.9733	37.5300	47	0	0 
02014.474	2.4622	-0.3638	0.6985	0.9766	-4.5166	-0.9766	-1.5656	-11.7334	176.9293	37.5300	48	0	0 
02014.484	2.4622	-0.3638	0.6985	0.9766	-4.5166	-0.9766	-1.6150	-11.9312	176.8799	37.5900	48	0	0 
02014.490	2.4622	-0.3638	0.6985	0.9766	-4.5166	-0.9766	-1.6644	-12.1289	176.8359	37.5900	49	0	0 
02014.490	2.4622	-0.3638	0.6985	0.9766	-4.5166	-0.9766	-1.7139	-12.3267	176.7920	37.6100	49	0	0 
02014.502	2.4622	-0.3638	0.6985	0.9766	-4.5166	-0.9766	-1.7578	-12.5189	176.7480	37.6100	50	0	0 
02014.502	2.4622	-0.3638	0.6985	0.9766	-4.5166	-0.9766	-1.8073	-12.7167	176.7096	37.5600	50	0	0 
02014.506	2.0330	-0.2913	0.6299	0.3052	4.2725	-2.3193	-1.8512	-12.8650	176.6602	37.5600	51	0	0 
02014.513	2.0330	-0.2913	0.6299	0.3052	4.2725	-2.3193	-1.8951	-13.0133	176.6162	37.5700	53	0	0 
02014.520	2.0330	-0.2913	0.6299	0.3052	4.2725	-2.3193	-1.9391	-13.1616	176.5668	37.5700	54	0	0 
02014.520	2.0330	-0.2913	0.6299	0.3052	4.2725	-2.3193	-1.9830	-13.3099	176.5228	37.5800	54	0	0 
02014.530	2.0330	-0.2913	0.6299	0.3052	4.2725	-2.3193	-2.0270	-13.4583	176.4734	37.5800	55	0	0 
02014.538	2.0330	-0.2913	0.6299	0.3052	4.2725	-2.3193	-2.0709	-13.6066	176.4294	37.5700	56	0	0 
02014.538	2.0330	-0.2913	0.6299	0.3052	4.2725	-2.3193	-2.1094	-13.7549	176.3855	37.5700	57	0	0 
02014.546	2.0330	-0.2913	0.6299	0.3052	4.2725	-2.3193	-2.1533	-13.9032	176.3416	37.5700	58	0	0 
02014.552	1.3254	-0.1826	0.4771	-0.6714	16.6626	-3.6011	-2.1918	-13.9801	176.2921	37.6000	59	0	0 
02014.552	1.3254	-0.1826	0.4771	-0.6714	16.6626	-3.6011	-2.2302	-14.0625	176.2427	37.6000	59	0	0 
02014.557	1.3254	-0.1826	0.4771	-0.6714	16.6626	-3.6011	-2.2632	-14.1449	176.1987	37.5400	59	0	0 
02014.566	1.3254	-0.1826	0.4771	-0.6714	16.6626	-3.6011	-2.3016	-14.2218	176.1493	37.5400	59	0	0 
02014.574	1.3254	-0.1826	0.4771	-0.6714	16.6626	-3.6011	-2.3401	-14.3042	176.1053	37.6000	59	0	0 
02014.574	1.3254	-0.1826	0.4771	-0.6714	16.6626	-3.6011	-2.3730	-14.3811	176.0559	37.6000	60	0	0 
02014.599	1.3254	-0.1826	0.4771	-0.6714	16.6626	-3.6011	-2.4115	-14.4635	176.0120	37.6300	61	0	0 
02014.606	1.3254	-0.1826	0.4771	-0.6714	16.6626	-3.6011	-2.4445	-14.5404	175.9680	37.6300	61	0	0 
02014.606	0.5894	-0.0691	0.2937	-1.4038	29.1748	-4.0894	-2.4664	-14.5404	175.9296	37.5800	62	0	0 
02014.611	0.5894	-0.0691	0.2937	-1.4038	29.1748	-4.0894	-2.4884	-14.5459	175.8911	37.5800	63	0	0 
02014.613	0.5894	-0.0691	0.2937	-1.4038	29.1748	-4.0894	-2.5104	-14.5459	175.8527	37.5700	64	0	0 
02014.613	0.5894	-0.0691	0.2937	-1.4038	29.1748	-4.0894	-2.5323	-14.5459	175.8142	37.5700	65	0	0 
02014.616	0.5894	-0.0691	0.2937	-1.4038	29.1748	-4.0894	-2.5543	-14.5514	175.7758	37.5800	66	0	0 
02014.621	0.5894	-0.0691	0.2937	-1.4038	29.1748	-4.0894	-2.5763	-14.5514	175.7373	37.5800	67	0	0 
02014.621	0.5894	-0.0691	0.2937	-1.4038	29.1748	-4.0894	-2.5983	-14.5514	175.6989	37.5800	67	0	0 
02014.623	0.5894	-0.0691	0.2937	-1.4038	29.1748	-4.0894	-2.6202	-14.5569	175.6604	37.5800	67	0	0 
02014.633	0.0222	0.0205	0.1418	-1.4038	39.6118	-3.4180	-2.5818	-14.3481	175.6384	37.5800	67	0	0 
02014.633	0.0222	0.0205	0.1418	-1.4038	39.6118	-3.4180	-2.5488	-14.1394	175.6165	37.5900	68	0	0 
02014.636	0.0222	0.0205	0.1418	-1.4038	39.6118	-3.4180	-2.5159	-13.9362	175.5945	37.5900	69	0	0 
02014.653	0.0222	0.0205	0.1418	-1.4038	39.6118	-3.4180	-2.4829	-13.7274	175.5725	37.5900	69	0	0 
02014.658	0.0222	0.0205	0.1418	-1.4038	39.6118	-3.4180	-2.4500	-13.5242	175.5560	37.5900	69	0	0 
02014.658	0.0222	0.0205	0.1418	-1.4038	39.6118	-3.4180	-2.4170	-13.3209	175.5341	37.6000	69	0	0 
02014.692	0.0222	0.0205	0.1418	-1.4038	39.6118	-3.4180	-2.3840	-13.1122	175.5121	37.6000	68	0	0 
02014.696	0.0222	0.0205	0.1418	-1.4038	39.6118	-3.4180	-2.3566	-12.9089	175.4901	37.6100	67	0	0 
02014.696	-0.3174	0.0728	0.0491	-0.7324	46.5698	-1.5259	-2.2083	-12.4750	175.3638	37.6100	67	0	0 
02014.700	-0.3174	0.0728	0.0491	-0.7324	46.5698	-1.5259	-2.0654	-12.0355	175.2374	37.6300	66	0	0 
02014.705	-0.3174	0.0728	0.0491	-0.7324	46.5698	-1.5259	-1.9226	-11.5961	175.1166	37.6300	66	0	0 
02014.705	-0.3174	0.0728	0.0491	-0.7324	46.5698	-1.5259	-1.7798	-11.1566	174.9957	37.5700	66	0	0 
02014.720	-0.3174	0.0728	0.0491	-0.7324	46.5698	-1.5259	-1.6370	-10.7227	174.8749	37.5700	66	0	0 
02014.722	-0.3174	0.0728	0.0491	-0.7324	46.5698	-1.5259	-1.4996	-10.2887	174.7540	37.6300	67	0	0 
02014.722	-0.3174	0.0728	0.0491	-0.7324	46.5698	-1.5259	-1.3623	-9.8492	174.6387	37.6300	68	0	0 
02014.732	-0.3174	0.0728	0.0491	-0.7324	46.5698	-1.5259	-1.2250	-9.4153	174.5233	37.6200	69	0	0 
02014.742	-0.4536	0.0952	0.0154	0.0610	49.2554	1.0376	-1.0382	-8.9868	174.3750	37.6200	69	0	0 
02014.742	-0.4536	0.0952	0.0154	0.0610	49.2554	1.0376	-0.8514	-8.5583	174.2322	37.6200	69	0	0 
02014.747	-0.4536	0.0952	0.0154	0.0610	49.2554	1.0376	-0.6647	-8.1354	174.0894	37.6200	71	0	0 
02014.753	-0.4536	0.0952	0.0154	0.0610	49.2554	1.0376	-0.4834	-7.7069	173.9465	37.6200	72	0	0 
02014.753	-0.4536	0.0952	0.0154	0.0610	49.2554	1.0376	-0.3021	-7.2784	173.8092	37.5900	72	0	0 
02014.769	-0.4536	0.0952	0.0154	0.0610	49.2554	1.0376	-0.1208	-6.8555	173.6719	37.5900	72	0	0 
02014.771	-0.4536	0.0952	0.0154	0.0610	49.2554	1.0376	0.0494	-6.4270	173.5345	37.6000	71	0	0 
02014.774	-0.4536	0.0952	0.0154	0.0610	49.2554	1.0376	0.2307	-6.0040	173.4027	37.6000	70	0	0 
02014.774	-0.4558	0.0972	0.0305	0.9766	48.0957	3.9673	0.3955	-5.5756	173.3038	37.5700	71	0	0 
02014.780	-0.4558	0.0972	0.0305	0.9766	48.0957	3.9673	0.5548	-5.1471	173.2050	37.5700	72	0	0 
02014.785	-0.4558	0.0972	0.0305	0.9766	48.0957	3.9673	0.7196	-4.7186	173.1061	37.5200	71	0	0 
02014.785	-0.4558	0.0972	0.0305	0.9766	48.0957	3.9673	0.8789	-4.2957	173.0072	37.5200	71	0	0 
02014.788	-0.4558	0.0972	0.0305	0.9766	48.0957	3.9673	1.0437	-3.8672	172.9138	37.6000	71	0	0 
02014.790	-0.4558	0.0972	0.0305	0.9766	48.0957	3.9673	1.2030	-3.4442	172.8204	37.6000	71	0	0 
02014.790	-0.4558	0.0972	0.0305	0.9766	48.0957	3.9673	1.3623	-3.0212	172.7271	37.5800	68	0	0 
02014.795	-0.4558	0.0972	0.0305	0.9766	48.0957	3.9673	1.5216	-2.5928	172.6392	37.5800	65	0	0 
02014.798	-0.4844	0.1086	0.1431	1.9531	40.1611	7.0190	1.6095	-2.2028	172.6337	37.5900	63	0	0 
02014.798	-0.4844	0.1086	0.1431	1.9531	40.1611	7.0190	1.6974	-1.8127	172.6282	37.5900	61	0	0 
02014.800	-0.4844	0.1086	0.1431	1.9531	40.1611	7.0190	1.7853	-1.4227	172.6227	37.5900	59	0	0 
02014.803	-0.4844	0.1086	0.1431	1.9531	40.1611	7.0190	1.8787	-1.0382	172.6172	37.5900	57	0	0 
02014.803	-0.4844	0.1086	0.1431	1.9531	40.1611	7.0190	1.9666	-0.6482	172.6117	37.5900	55	0	0 
02014.815	-0.4844	0.1086	0.1431	1.9531	40.1611	7.0190	2.0544	-0.2637	172.6117	37.5900	54	0	0 
02014.818	-0.4844	0.1086	0.1431	1.9531	40.1611	7.0190	2.1423	0.1208	172.6062	37.5900	53	0	0 
02014.828	-0.4844	0.1086	0.1431	1.9531	40.1611	7.0190	2.2302	0.5054	172.6062	37.6200	52	0	0 
02014.828	-0.3311	0.1326	0.2605	3.3569	20.0806	9.8267	2.3126	0.7361	172.6447	37.6200	52	0	0 
02014.834	-0.3311	0.1326	0.2605	3.3569	20.0806	9.8267	2.3950	0.9668	172.6831	37.5400	52	0	0 
02014.870	-0.3311	0.1326	0.2605	3.3569	20.0806	9.8267	2.4719	1.1975	172.7216	37.5400	53	0	0 
02014.870	-0.3311	0.1326	0.2605	3.3569	20.0806	9.8267	2.5543	1.4282	172.7655	37.5600	54	0	0 
02014.872	-0.3311	0.1326	0.2605	3.3569	20.0806	9.8267	2.6367	1.6589	172.8040	37.5600	55	0	0 
02014.891	-0.3311	0.1326	0.2605	3.3569	20.0806	9.8267	2.7136	1.8842	172.8424	37.5500	56	0	0 
02014.891	-0.3311	0.1326	0.2605	3.3569	20.0806	9.8267	2.7960	2.1149	172.8864	37.5500	56	0	0 
02014.903	-0.3311	0.1326	0.2605	3.3569	20.0806	9.8267	2.8729	2.3401	172.9248	37.5600	56	0	0 
02014.931	-0.4509	0.1660	0.4866	4.7607	-3.0518	11.2915	2.9443	2.4335	172.9797	37.5600	57	0	0 
02014.931	-0.4509	0.1660	0.4866	4.7607	-3.0518	11.2915	3.0103	2.5214	173.0347	37.5600	58	0	0 
02014.940	-0.4509	0.1660	0.4866	4.7607	-3.0518	11.2915	3.0762	2.6147	173.0896	37.6100	57	0	0 
02014.951	-0.4509	0.1660	0.4866	4.7607	-3.0518	11.2915	3.1476	2.7026	173.1445	37.6100	57	0	0 
02014.951	-0.4509	0.1660	0.4866	4.7607	-3.0518	11.2915	3.2135	2.7905	173.1995	37.5600	57	0	0 
02014.959	-0.4509	0.1660	0.4866	4.7607	-3.0518	11.2915	3.2794	2.8839	173.2489	37.5600	57	0	0 
02014.967	-0.4509	0.1660	0.4866	4.7607	-3.0518	11.2915	3.3453	2.9718	173.3038	37.5700	57	0	0 
02014.967	-0.4509	0.1660	0.4866	4.7607	-3.0518	11.2915	3.4167	3.0597	173.3588	37.5700	57	0	0 
02014.977	-0.3311	0.1790	0.5596	5.5542	-17.7612	10.8643	3.4827	3.0432	173.4137	37.6100	58	0	0 
02014.987	-0.3311	0.1790	0.5596	5.5542	-17.7612	10.8643	3.5541	3.0212	173.4631	37.6100	58	0	0 
02014.994	-0.3311	0.1790	0.5596	5.5542	-17.7612	10.8643	3.6255	3.0048	173.5181	37.5400	58	0	0 
02014.994	-0.3311	0.1790	0.5596	5.5542	-17.7612	10.8643	3.6969	2.9828	173.5675	37.5400	58	0	0 
02015.001	-0.3311	0.1790	0.5596	5.5542	-17.7612	10.8643	3.7628	2.9663	173.6224	37.6100	58	0	0 
02015.014	-0.3311	0.1790	0.5596	5.5542	-17.7612	10.8643	3.8342	2.9498	173.6719	37.6100	59	0	0 
02015.014	-0.3311	0.1790	0.5596	5.5542	-17.7612	10.8643	3.9056	2.9279	173.7268	37.5400	59	0	0 
02015.021	-0.3311	0.1790	0.5596	5.5542	-17.7612	10.8643	3.9716	2.9114	173.7762	37.5400	59	0	0 
02015.027	-0.3516	0.1658	0.5984	5.5542	-20.9961	9.0942	4.0320	2.8784	173.8202	37.5700	59	0	0 
02015.027	-0.3516	0.1658	0.5984	5.5542	-20.9961	9.0942	4.0979	2.8400	173.8641	37.5700	59	0	0 
02015.046	-0.3516	0.1658	0.5984	5.5542	-20.9961	9.0942	4.1583	2.8070	173.9026	37.5700	60	0	0 
02015.069	-0.3516	0.1658	0.5984	5.5542	-20.9961	9.0942	4.2188	2.7740	173.9465	37.6200	59	0	0 
02015.069	-0.3516	0.1658	0.5984	5.5542	-20.9961	9.0942	4.2792	2.7411	173.9905	37.6200	59	0	0 
02015.096	-0.3516	0.1658	0.5984	5.5542	-20.9961	9.0942	4.3396	2.7081	174.0289	37.5600	59	0	0 
02015.098	-0.3516	0.1658	0.5984	5.5542	-20.9961	9.0942	4.4000	2.6697	174.0729	37.5600	59	0	0 
02015.098	-0.3516	0.1658	0.5984	5.5542	-20.9961	9.0942	4.4604	2.6367	174.1113	37.6300	59	0	0 
02015.098	-0.3557	0.1289	0.5396	4.7607	-8.6670	6.8359	4.5099	2.6752	174.1498	37.6300	58	0	0 
02015.098	-0.3557	0.1289	0.5396	4.7607	-8.6670	6.8359	4.5648	2.7136	174.1827	37.5800	57	0	0 
02015.104	-0.3557	0.1289	0.5396	4.7607	-8.6670	6.8359	4.6143	2.7521	174.2157	37.5800	56	0	0 
02015.104	-0.3557	0.1289	0.5396	4.7607	-8.6670	6.8359	4.6637	2.7905	174.2542	37.6200	56	0	0 
02015.112	-0.3557	0.1289	0.5396	4.7607	-8.6670	6.8359	4.7131	2.8235	174.2871	37.6200	55	0	0 
02015.118	-0.3557	0.1289	0.5396	4.7607	-8.6670	6.8359	4.7626	2.8619	174.3201	37.5900	54	0	0 
02015.118	-0.3557	0.1289	0.5396	4.7607	-8.6670	6.8359	4.8065	2.9004	174.3585	37.5900	54	0	0 
02015.123	-0.3557	0.1289	0.5396	4.7607	-8.6670	6.8359	4.8560	2.9333	174.3915	37.5600	53	0	0 
02015.133	-0.3875	0.0957	0.4812	3.4180	6.7139	5.6763	4.8944	3.0652	174.4244	37.5600	52	0	0 
02015.146	-0.3875	0.0957	0.4812	3.4180	6.7139	5.6763	4.9274	3.1915	174.4629	37.5600	51	0	0 
02015.146	-0.3875	0.0957	0.4812	3.4180	6.7139	5.6763	4.9658	3.3234	174.4958	37.5600	50	0	0 
02015.156	-0.3875	0.0957	0.4812	3.4180	6.7139	5.6763	4.9988	3.4497	174.5343	37.5600	49	0	0 
02015.156	-0.3875	0.0957	0.4812	3.4180	6.7139	5.6763	5.0372	3.5760	174.5673	37.5500	49	0	0 
02015.161	-0.3875	0.0957	0.4812	3.4180	6.7139	5.6763	5.0702	3.7079	174.6057	37.5500	46	0	0 
02015.173	-0.3875	0.0957	0.4812	3.4180	6.7139	5.6763	5.1031	3.8342	174.6387	37.5600	45	0	0 
02015.184	-0.3875	0.0957	0.4812	3.4180	6.7139	5.6763	5.1416	3.9606	174.6771	37.5600	43	0	0 
02015.184	-0.3040	0.1243	0.5261	1.7700	8.2397	6.2866	5.1746	4.0649	174.7156	37.5800	42	0	0 
02015.191	-0.3040	0.1243	0.5261	1.7700	8.2397	6.2866	5.2075	4.1748	174.7540	37.5800	41	0	0 
02015.199	-0.3040	0.1243	0.5261	1.7700	8.2397	6.2866	5.2460	4.2792	174.7925	37.5900	40	0	0 
02015.199	-0.3040	0.1243	0.5261	1.7700	8.2397	6.2866	5.2789	4.3890	174.8364	37.5900	39	0	0 
02015.208	-0.3040	0.1243	0.5261	1.7700	8.2397	6.2866	5.3119	4.4934	174.8749	37.5300	39	0	0 
02015.215	-0.3040	0.1243	0.5261	1.7700	8.2397	6.2866	5.3503	4.6033	174.9133	37.5300	39	0	0 
02015.215	-0.3040	0.1243	0.5261	1.7700	8.2397	6.2866	5.3833	4.7076	174.9518	37.5400	38	0	0 
02015.274	-0.3040	0.1243	0.5261	1.7700	8.2397	6.2866	5.4163	4.8120	174.9902	37.5400	38	0	0 
02015.276	-0.4946	0.0496	0.7126	-0.4272	-2.5024	7.5684	5.4108	4.8779	175.0397	37.5300	38	0	0 
02015.276	-0.4946	0.0496	0.7126	-0.4272	-2.5024	7.5684	5.4108	4.9438	175.0836	37.5300	39	0	0 
02015.276	-0.4946	0.0496	0.7126	-0.4272	-2.5024	7.5684	5.4053	5.0098	175.1276	37.5700	39	0	0 
02015.283	-0.4946	0.0496	0.7126	-0.4272	-2.5024	7.5684	5.4053	5.0757	175.1770	37.5700	39	0	0 
02015.283	-0.4946	0.0496	0.7126	-0.4272	-2.5024	7.5684	5.3998	5.1416	175.2209	37.5700	39	0	0 
02015.283	-0.4946	0.0496	0.7126	-0.4272	-2.5024	7.5684	5.3943	5.2075	175.2649	37.5600	39	0	0 
02015.297	-0.4946	0.0496	0.7126	-0.4272	-2.5024	7.5684	5.3943	5.2734	175.3088	37.5600	39	0	0 
02015.305	-0.4946	0.0496	0.7126	-0.4272	-2.5024	7.5684	5.3888	5.3339	175.3583	37.5900	40	0	0 
02015.305	-0.4451	0.0996	0.8289	-2.1973	-17.2729	7.8125	5.3888	5.3064	175.3912	37.5900	39	0	0 
02015.327	-0.4451	0.0996	0.8289	-2.1973	-17.2729	7.8125	5.3833	5.2789	175.4297	37.5400	38	0	0 
02015.333	-0.4451	0.0996	0.8289	-2.1973	-17.2729	7.8125	5.3778	5.2515	175.4681	37.5400	38	0	0 
02015.333	-0.4451	0.0996	0.8289	-2.1973	-17.2729	7.8125	5.3778	5.2240	175.5066	37.6600	38	0	0 
02015.341	-0.4451	0.0996	0.8289	-2.1973	-17.2729	7.8125	5.3723	5.1965	175.5396	37.6600	38	0	0 
02015.346	-0.4451	0.0996	0.8289	-2.1973	-17.2729	7.8125	5.3668	5.1691	175.5780	37.5900	38	0	0 
02015.346	-0.4451	0.0996	0.8289	-2.1973	-17.2729	7.8125	5.3668	5.1416	175.6165	37.5900	38	0	0 
02015.355	-0.4451	0.0996	0.8289	-2.1973	-17.2729	7.8125	5.3613	5.1141	175.6549	37.5600	38	0	0 
02015.364	-0.5330	0.0110	1.0413	-3.2959	-29.4189	5.9814	5.3339	5.0262	175.6769	37.5600	38	0	0 
02015.374	-0.5330	0.0110	1.0413	-3.2959	-29.4189	5.9814	5.3064	4.9329	175.7043	37.6500	39	0	0 
02015.374	-0.5330	0.0110	1.0413	-3.2959	-29.4189	5.9814	5.2789	4.8450	175.7263	37.6500	40	0	0 
02015.383	-0.5330	0.0110	1.0413	-3.2959	-29.4189	5.9814	5.2460	4.7571	175.7538	37.6500	41	0	0 
02015.385	-0.5330	0.0110	1.0413	-3.2959	-29.4189	5.9814	5.2185	4.6692	175.7758	37.5600	41	0	0 
02015.385	-0.5330	0.0110	1.0413	-3.2959	-29.4189	5.9814	5.1910	4.5758	175.8032	37.5600	41	0	0 
02015.393	-0.5330	0.0110	1.0413	-3.2959	-29.4189	5.9814	5.1636	4.4879	175.8307	37.6200	41	0	0 
02015.396	-0.5330	0.0110	1.0413	-3.2959	-29.4189	5.9814	5.1361	4.4000	175.8527	37.6200	42	0	0 
02015.396	-0.5596	0.0193	1.0789	-4.1504	-32.5928	1.8311	5.1031	4.3011	175.8582	37.5900	42	0	0 
02015.402	-0.5596	0.0193	1.0789	-4.1504	-32.5928	1.8311	5.0702	4.2023	175.8582	37.5900	42	0	0 
02015.402	-0.5596	0.0193	1.0789	-4.1504	-32.5928	1.8311	5.0372	4.0979	175.8636	37.6200	41	0	0 
02015.402	-0.5596	0.0193	1.0789	-4.1504	-32.5928	1.8311	5.0043	3.9990	175.8636	37.6200	41	0	0 
02015.405	-0.5596	0.0193	1.0789	-4.1504	-32.5928	1.8311	4.9713	3.9001	175.8691	37.5700	41	0	0 
02015.405	-0.5596	0.0193	1.0789	-4.1504	-32.5928	1.8311	4.9438	3.8013	175.8691	37.5700	41	0	0 
02015.405	-0.5596	0.0193	1.0789	-4.1504	-32.5928	1.8311	4.9109	3.7024	175.8746	37.6400	41	0	0 
02015.413	-0.5596	0.0193	1.0789	-4.1504	-32.5928	1.8311	4.8779	3.6035	175.8801	37.6400	40	0	0 
02015.413	-0.5286	0.0186	1.1194	-4.4556	-26.9165	-2.8687	4.8450	3.5266	175.8582	37.5500	41	0	0 
02015.419	-0.5286	0.0186	1.1194	-4.4556	-26.9165	-2.8687	4.8065	3.4552	175.8417	37.5500	41	0	0 
02015.419	-0.5286	0.0186	1.1194	-4.4556	-26.9165	-2.8687	4.7736	3.3783	175.8252	37.6400	41	0	0 
02015.419	-0.5286	0.0186	1.1194	-4.4556	-26.9165	-2.8687	4.7406	3.3069	175.8087	37.6400	41	0	0 
02015.422	-0.5286	0.0186	1.1194	-4.4556	-26.9165	-2.8687	4.7076	3.2300	175.7922	37.6400	41	0	0 
02015.422	-0.5286	0.0186	1.1194	-4.4556	-26.9165	-2.8687	4.6692	3.1586	175.7758	37.5600	41	0	0 
02015.425	-0.5286	0.0186	1.1194	-4.4556	-26.9165	-2.8687	4.6362	3.0872	175.7538	37.5600	41	0	0 
02015.425	-0.5286	0.0186	1.1194	-4.4556	-26.9165	-2.8687	4.6033	3.0103	175.7373	37.5900	41	0	0 
02015.425	-0.5042	0.0383	1.1055	-4.7607	-18.5547	-6.2866	4.5703	2.9828	175.7098	37.5900	42	0	0 
02015.428	-0.5042	0.0383	1.1055	-4.7607	-18.5547	-6.2866	4.5374	2.9498	175.6769	37.5800	42	0	0 
02015.432	-0.5042	0.0383	1.1055	-4.7607	-18.5547	-6.2866	4.5044	2.9169	175.6439	37.5800	42	0	0 
02015.432	-0.5042	0.0383	1.1055	-4.7607	-18.5547	-6.2866	4.4714	2.8839	175.6165	37.5600	42	0	0 
02015.432	-0.5042	0.0383	1.1055	-4.7607	-18.5547	-6.2866	4.4385	2.8510	175.5835	37.5600	42	0	0 
02015.435	-0.5042	0.0383	1.1055	-4.7607	-18.5547	-6.2866	4.4055	2.8180	175.5560	37.6100	43	0	0 
02015.435	-0.5042	0.0383	1.1055	-4.7607	-18.5547	-6.2866	4.3726	2.7905	175.5231	37.6100	42	0	0 
02015.435	-0.5042	0.0383	1.1055	-4.7607	-18.5547	-6.2866	4.3451	2.7576	175.4956	37.5700	41	0	0 
02015.440	-0.4961	0.0618	1.0718	-5.0659	-10.4370	-7.1411	4.3121	2.7686	175.4626	37.5700	41	0	0 
02015.446	-0.4961	0.0618	1.0718	-5.0659	-10.4370	-7.1411	4.2847	2.7795	175.4297	37.6500	41	0	0 
02015.446	-0.4961	0.0618	1.0718	-5.0659	-10.4370	-7.1411	4.2517	2.7850	175.3967	37.6500	41	0	0 
02015.448	-0.4961	0.0618	1.0718	-5.0659	-10.4370	-7.1411	4.2242	2.7960	175.3693	37.5000	41	0	0 
02015.448	-0.4961	0.0618	1.0718	-5.0659	-10.4370	-7.1411	4.1913	2.8070	175.3363	37.5000	42	0	0 
02015.448	-0.4961	0.0618	1.0718	-5.0659	-10.4370	-7.1411	4.1638	2.8180	175.3033	37.5000	42	0	0 
02015.458	-0.4961	0.0618	1.0718	-5.0659	-10.4370	-7.1411	4.1364	2.8235	175.2759	37.5700	42	0	0 
02015.460	-0.4961	0.0618	1.0718	-5.0659	-10.4370	-7.1411	4.1034	2.8345	175.2429	37.5700	42	0	0 
02015.460	-0.4377	0.0684	1.0354	-4.3945	-3.6621	-5.4932	4.0814	2.8729	175.2209	37.6300	41	0	0 
02015.465	-0.4377	0.0684	1.0354	-4.3945	-3.6621	-5.4932	4.0594	2.9114	175.1990	37.6300	41	0	0 
02015.467	-0.4377	0.0684	1.0354	-4.3945	-3.6621	-5.4932	4.0320	2.9443	175.1825	37.5900	41	0	0 
02015.467	-0.4377	0.0684	1.0354	-4.3945	-3.6621	-5.4932	4.0100	2.9828	175.1605	37.5900	42	0	0 
02015.470	-0.4377	0.0684	1.0354	-4.3945	-3.6621	-5.4932	3.9880	3.0212	175.1385	37.6000	42	0	0 
02015.472	-0.4377	0.0684	1.0354	-4.3945	-3.6621	-5.4932	3.9606	3.0542	175.1166	37.6000	41	0	0 
02015.472	-0.4377	0.0684	1.0354	-4.3945	-3.6621	-5.4932	3.9386	3.0927	175.1001	37.6300	40	0	0 
02015.480	-0.4377	0.0684	1.0354	-4.3945	-3.6621	-5.4932	3.9166	3.1311	175.0781	37.6300	41	0	0 
02015.504	-0.3640	0.0654	1.0071	-2.9297	0.7324	-2.6855	3.9001	3.1750	175.0726	37.5600	41	0	0 
02015.504	-0.3640	0.0654	1.0071	-2.9297	0.7324	-2.6855	3.8837	3.2245	175.0671	37.5600	41	0	0 
02015.506	-0.3640	0.0654	1.0071	-2.9297	0.7324	-2.6855	3.8672	3.2739	175.0616	37.6000	41	0	0 
02015.506	-0.3640	0.0654	1.0071	-2.9297	0.7324	-2.6855	3.8507	3.3179	175.0562	37.6000	41	0	0 
02015.506	-0.3640	0.0654	1.0071	-2.9297	0.7324	-2.6855	3.8397	3.3673	175.0562	37.6100	41	0	0 
02015.506	-0.3640	0.0654	1.0071	-2.9297	0.7324	-2.6855	3.8232	3.4167	175.0507	37.6100	41	0	0 
02015.506	-0.3640	0.0654	1.0071	-2.9297	0.7324	-2.6855	3.8068	3.4607	175.0452	37.6100	42	0	0 
02015.511	-0.3640	0.0654	1.0071	-2.9297	0.7324	-2.6855	3.7903	3.5101	175.0397	37.5800	41	0	0 
02015.511	-0.2388	0.0461	0.9900	-1.2817	2.8687	-0.1831	3.7848	3.5486	175.0507	37.5800	40	0	0 
02015.514	-0.2388	0.0461	0.9900	-1.2817	2.8687	-0.1831	3.7738	3.5815	175.0562	37.5100	40	0	0 
02015.516	-0.2388	0.0461	0.9900	-1.2817	2.8687	-0.1831	3.7683	3.6200	175.0671	37.5100	40	0	0 
02015.516	-0.2388	0.0461	0.9900	-1.2817	2.8687	-0.1831	3.7573	3.6584	175.0726	37.5900	40	0	0 
02015.524	-0.2388	0.0461	0.9900	-1.2817	2.8687	-0.1831	3.7463	3.6969	175.0836	37.5900	40	0	0 
02015.527	-0.2388	0.0461	0.9900	-1.2817	2.8687	-0.1831	3.7408	3.7354	175.0891	37.5900	40	0	0 
02015.527	-0.2388	0.0461	0.9900	-1.2817	2.8687	-0.1831	3.7299	3.7683	175.1001	37.5900	40	0	0 
02015.542	-0.2388	0.0461	0.9900	-1.2817	2.8687	-0.1831	3.7244	3.8068	175.1056	37.5000	40	0	0 
02015.544	-0.1155	0.0242	0.9832	-0.0610	3.1738	1.3428	3.7189	3.8232	175.1221	37.5000	41	0	0 
02015.546	-0.1155	0.0242	0.9832	-0.0610	3.1738	1.3428	3.7134	3.8397	175.1385	37.5900	41	0	0 
02015.546	-0.1155	0.0242	0.9832	-0.0610	3.1738	1.3428	3.7079	3.8617	175.1550	37.5900	41	0	0 
02015.551	-0.1155	0.0242	0.9832	-0.0610	3.1738	1.3428	3.7024	3.8782	175.1715	37.6100	41	0	0 
02015.551	-0.1155	0.0242	0.9832	-0.0610	3.1738	1.3428	3.6969	3.8947	175.1880	37.6100	40	0	0 
02015.561	-0.1155	0.0242	0.9832	-0.0610	3.1738	1.3428	3.6914	3.9111	175.2045	37.6100	40	0	0 
02015.564	-0.1155	0.0242	0.9832	-0.0610	3.1738	1.3428	3.6859	3.9276	175.2209	37.5600	40	0	0 
02015.583	-0.1155	0.0242	0.9832	-0.0610	3.1738	1.3428	3.6804	3.9441	175.2319	37.5600	40	0	0 
02015.583	-0.0251	0.0051	0.9836	0.6714	2.4414	1.8921	3.6749	3.9441	175.2539	37.6100	41	0	0 
02015.585	-0.0251	0.0051	0.9836	0.6714	2.4414	1.8921	3.6749	3.9386	175.2704	37.6100	41	0	0 
02015.587	-0.0251	0.0051	0.9836	0.6714	2.4414	1.8921	3.6694	3.9386	175.2869	37.5500	40	0	0 
02015.587	-0.0251	0.0051	0.9836	0.6714	2.4414	1.8921	3.6639	3.9331	175.3033	37.5500	40	0	0 
02015.594	-0.0251	0.0051	0.9836	0.6714	2.4414	1.8921	3.6584	3.9331	175.3198	37.6200	39	0	0 
02015.599	-0.0251	0.0051	0.9836	0.6714	2.4414	1.8921	3.6584	3.9276	175.3363	37.6200	39	0	0 
02015.599	-0.0251	0.0051	0.9836	0.6714	2.4414	1.8921	3.6530	3.9276	175.3528	37.5000	39	0	0 
02015.602	-0.0251	0.0051	0.9836	0.6714	2.4414	1.8921	3.6475	3.9221	175.3748	37.5000	39	0	0 
02015.604	0.0251	-0.0073	0.9875	0.9155	1.4648	1.7090	3.6420	3.9056	175.3857	37.5800	40	0	0 
02015.606	0.0251	-0.0073	0.9875	0.9155	1.4648	1.7090	3.6365	3.8892	175.4022	37.5800	41	0	0 
02015.606	0.0251	-0.0073	0.9875	0.9155	1.4648	1.7090	3.6310	3.8727	175.4187	37.5400	42	0	0 
02015.614	0.0251	-0.0073	0.9875	0.9155	1.4648	1.7090	3.6255	3.8562	175.4352	37.5400	41	0	0 
02015.616	0.0251	-0.0073	0.9875	0.9155	1.4648	1.7090	3.6255	3.8452	175.4517	37.5600	40	0	0 
02015.616	0.0251	-0.0073	0.9875	0.9155	1.4648	1.7090	3.6200	3.8287	175.4626	37.5600	39	0	0 
02015.619	0.0251	-0.0073	0.9875	0.9155	1.4648	1.7090	3.6145	3.8123	175.4791	37.5600	39	0	0 
02015.627	0.0251	-0.0073	0.9875	0.9155	1.4648	1.7090	3.6090	3.7958	175.4956	37.6200	39	0	0 
02015.627	0.0417	-0.0132	0.9927	0.7935	0.5493	1.1597	3.6035	3.7738	175.5066	37.6200	39	0	0 
02015.634	0.0417	-0.0132	0.9927	0.7935	0.5493	1.1597	3.5925	3.7518	175.5176	37.5900	38	0	0 
02015.640	0.0417	-0.0132	0.9927	0.7935	0.5493	1.1597	3.5870	3.7244	175.5286	37.5900	38	0	0 
02015.640	0.0417	-0.0132	0.9927	0.7935	0.5493	1.1597	3.5815	3.7024	175.5396	37.5500	37	0	0 
02015.647	0.0417	-0.0132	0.9927	0.7935	0.5493	1.1597	3.5760	3.6804	175.5560	37.5500	37	0	0 
02015.657	0.0417	-0.0132	0.9927	0.7935	0.5493	1.1597	3.5651	3.6584	175.5670	37.6000	37	0	0 
02015.657	0.0417	-0.0132	0.9927	0.7935	0.5493	1.1597	3.5596	3.6365	175.5780	37.6000	38	0	0 
02015.680	0.0417	-0.0132	0.9927	0.7935	0.5493	1.1597	3.5541	3.6145	175.5890	37.5600	39	0	0 
02015.682	0.0361	-0.0139	0.9968	0.5493	-0.0610	0.6104	3.5486	3.5870	175.6000	37.5600	38	0	0 
02015.682	0.0361	-0.0139	0.9968	0.5493	-0.0610	0.6104	3.5376	3.5651	175.6055	37.5900	38	0	0 
02015.682	0.0361	-0.0139	0.9968	0.5493	-0.0610	0.6104	3.5321	3.5376	175.6165	37.5900	38	0	0 
02015.687	0.0361	-0.0139	0.9968	0.5493	-0.0610	0.6104	3.5211	3.5156	175.6219	37.5400	38	0	0 
02015.692	0.0361	-0.0139	0.9968	0.5493	-0.0610	0.6104	3.5156	3.4937	175.6329	37.5400	39	0	0 
02015.692	0.0361	-0.0139	0.9968	0.5493	-0.0610	0.6104	3.5046	3.4662	175.6384	37.5400	39	0	0 
02015.753	0.0361	-0.0139	0.9968	0.5493	-0.0610	0.6104	3.4991	3.4442	175.6494	37.5400	38	0	0 
02015.755	0.0361	-0.0139	0.9968	0.5493	-0.0610	0.6104	3.4882	3.4222	175.6604	37.5400	38	0	0 
02015.755	0.0203	-0.0120	0.9998	0.3052	-0.3662	0.1221	3.4827	3.4003	175.6659	37.6000	38	0	0 
02015.761	0.0203	-0.0120	0.9998	0.3052	-0.3662	0.1221	3.4717	3.3783	175.6714	37.6000	37	0	0 
02015.764	0.0203	-0.0120	0.9998	0.3052	-0.3662	0.1221	3.4607	3.3508	175.6769	37.6500	37	0	0 
02015.764	0.0203	-0.0120	0.9998	0.3052	-0.3662	0.1221	3.4552	3.3289	175.6824	37.6500	38	0	0 
02015.766	0.0203	-0.0120	0.9998	0.3052	-0.3662	0.1221	3.4442	3.3069	175.6879	37.5400	37	0	0 
02015.770	0.0203	-0.0120	0.9998	0.3052	-0.3662	0.1221	3.4332	3.2849	175.6934	37.5400	37	0	0 
02015.770	0.0203	-0.0120	0.9998	0.3052	-0.3662	0.1221	3.4277	3.2629	175.6989	37.5700	37	0	0 
02015.772	0.0027	-0.0090	1.0010	0.0610	-0.4272	-0.1221	3.4167	3.2465	175.7043	37.5700	37	0	0 
02015.774	0.0027	-0.0090	1.0010	0.0610	-0.4272	-0.1221	3.4058	3.2245	175.7098	37.5800	38	0	0 
02015.774	0.0027	-0.0090	1.0010	0.0610	-0.4272	-0.1221	3.3948	3.2080	175.7153	37.5800	39	0	0 
02015.776	0.0027	-0.0090	1.0010	0.0610	-0.4272	-0.1221	3.3893	3.1915	175.7208	37.6300	40	0	0 
02015.787	0.0027	-0.0090	1.0010	0.0610	-0.4272	-0.1221	3.3783	3.1696	175.7263	37.6300	40	0	0 
02015.789	0.0027	-0.0090	1.0010	0.0610	-0.4272	-0.1221	3.3673	3.1531	175.7318	37.5400	41	0	0 
02015.789	0.0027	-0.0090	1.0010	0.0610	-0.4272	-0.1221	3.3563	3.1311	175.7373	37.5400	42	0	0 
02015.792	0.0027	-0.0090	1.0010	0.0610	-0.4272	-0.1221	3.3508	3.1146	175.7373	37.5300	42	0	0 
02015.797	-0.0112	-0.0063	1.0012	0.0000	-0.3662	-0.1831	3.3398	3.0981	175.7428	37.5300	42	0	0 
02015.797	-0.0112	-0.0063	1.0012	0.0000	-0.3662	-0.1831	3.3289	3.0817	175.7483	37.5300	42	0	0 
02015.804	-0.0112	-0.0063	1.0012	0.0000	-0.3662	-0.1831	3.3234	3.0652	175.7538	37.6100	42	0	0 
02015.812	-0.0112	-0.0063	1.0012	0.0000	-0.3662	-0.1831	3.3124	3.0487	175.7593	37.6100	41	0	0 
02015.812	-0.0112	-0.0063	1.0012	0.0000	-0.3662	-0.1831	3.3014	3.0322	175.7648	37.5900	41	0	0 
02015.814	-0.0112	-0.0063	1.0012	0.0000	-0.3662	-0.1831	3.2904	3.0212	175.7703	37.5900	40	0	0 
02015.817	-0.0112	-0.0063	1.0012	0.0000	-0.3662	-0.1831	3.2849	3.0048	175.7703	37.5600	40	0	0 
02015.817	-0.0112	-0.0063	1.0012	0.0000	-0.3662	-0.1831	3.2739	2.9883	175.7758	37.5600	41	0	0 
02015.822	-0.0198	-0.0042	1.0007	-0.0610	-0.2441	-0.1831	3.2629	2.9718	175.7813	37.5900	41	0	0 
02015.832	-0.0198	-0.0042	1.0007	-0.0610	-0.2441	-0.1831	3.2574	2.9608	175.7867	37.5900	41	0	0 
02015.836	-0.0198	-0.0042	1.0007	-0.0610	-0.2441	-0.1831	3.2465	2.9498	175.7922	37.5100	41	0	0 
02015.836	-0.0198	-0.0042	1.0007	-0.0610	-0.2441	-0.1831	3.2355	2.9333	175.7977	37.5100	41	0	0 
02015.845	-0.0198	-0.0042	1.0007	-0.0610	-0.2441	-0.1831	3.2300	2.9224	175.8032	37.5600	41	0	0 
02015.854	-0.0198	-0.0042	1.0007	-0.0610	-0.2441	-0.1831	3.2190	2.9059	175.8032	37.5600	41	0	0 
02015.854	-0.0198	-0.0042	1.0007	-0.0610	-0.2441	-0.1831	3.2135	2.8949	175.8087	37.6000	40	0	0 
02015.881	-0.0198	-0.0042	1.0007	-0.0610	-0.2441	-0.1831	3.2025	2.8839	175.8142	37.6000	40	0	0 
02015.906	-0.0234	-0.0029	1.0002	-0.0610	-0.0610	-0.1221	3.1915	2.8674	175.8197	37.6000	40	0	0 
02015.906	-0.0234	-0.0029	1.0002	-0.0610	-0.0610	-0.1221	3.1860	2.8564	175.8252	37.5800	39	0	0 
02015.908	-0.0234	-0.0029	1.0002	-0.0610	-0.0610	-0.1221	3.1750	2.8455	175.8307	37.5800	39	0	0 
02015.908	-0.0234	-0.0029	1.0002	-0.0610	-0.0610	-0.1221	3.1696	2.8345	175.8362	37.6100	39	0	0 
02015.908	-0.0234	-0.0029	1.0002	-0.0610	-0.0610	-0.1221	3.1586	2.8235	175.8417	37.6100	40	0	0 
02015.911	-0.0234	-0.0029	1.0002	-0.0610	-0.0610	-0.1221	3.1476	2.8125	175.8417	37.5600	40	0	0 
02015.918	-0.0234	-0.0029	1.0002	-0.0610	-0.0610	-0.1221	3.1421	2.8015	175.8472	37.5600	40	0	0 
02015.918	-0.0234	-0.0029	1.0002	-0.0610	-0.0610	-0.1221	3.1311	2.7905	175.8527	37.5700	41	0	0 
02015.929	-0.0234	-0.0027	0.9998	0.0000	0.0000	-0.0610	3.1256	2.7795	175.8582	37.5700	41	0	0 
02015.931	-0.0234	-0.0027	0.9998	0.0000	0.0000	-0.0610	3.1146	2.7686	175.8636	37.5200	41	0	0 
02015.943	-0.0234	-0.0027	0.9998	0.0000	0.0000	-0.0610	3.1091	2.7576	175.8691	37.5200	41	0	0 
02015.943	-0.0234	-0.0027	0.9998	0.0000	0.0000	-0.0610	3.0981	2.7466	175.8746	37.5500	41	0	0 
02015.945	-0.0234	-0.0027	0.9998	0.0000	0.0000	-0.0610	3.0927	2.7356	175.8801	37.5500	41	0	0 
02015.948	-0.0234	-0.0027	0.9998	0.0000	0.0000	-0.0610	3.0817	2.7246	175.8856	37.5500	40	0	0 
02015.948	-0.0234	-0.0027	0.9998	0.0000	0.0000	-0.0610	3.0762	2.7136	175.8911	37.5500	41	0	0 
02015.958	-0.0234	-0.0027	0.9998	0.0000	0.0000	-0.0610	3.0707	2.7026	175.8966	37.5500	41	0	0 
02015.960	-0.0215	-0.0029	0.9990	0.0000	0.0000	0.0000	3.0597	2.6917	175.9021	37.5500	42	0	0 
02015.960	-0.0215	-0.0029	0.9990	0.0000	0.0000	0.0000	3.0542	2.6807	175.9076	37.5500	42	0	0 
02015.962	-0.0215	-0.0029	0.9990	0.0000	0.0000	0.0000	3.0432	2.6697	175.9131	37.6100	42	0	0 
02015.964	-0.0215	-0.0029	0.9990	0.0000	0.0000	0.0000	3.0377	2.6587	175.9186	37.6100	41	0	0 
02015.964	-0.0215	-0.0029	0.9990	0.0000	0.0000	0.0000	3.0267	2.6477	175.9241	37.5900	41	0	0 
02015.966	-0.0215	-0.0029	0.9990	0.0000	0.0000	0.0000	3.0212	2.6367	175.9296	37.5900	42	0	0 
02015.974	-0.0215	-0.0029	0.9990	0.0000	0.0000	0.0000	3.0103	2.6257	175.9351	37.6100	42	0	0 
02015.974	-0.0215	-0.0029	0.9990	0.0000	0.0000	0.0000	3.0048	2.6147	175.9406	37.6100	42	0	0 
02015.983	-0.0190	-0.0034	0.9985	0.0000	0.0610	0.0000	2.9993	2.6038	175.9406	37.5700	41	0	0 
02015.990	-0.0190	-0.0034	0.9985	0.0000	0.0610	0.0000	2.9883	2.5928	175.9460	37.5700	41	0	0 
02015.997	-0.0190	-0.0034	0.9985	0.0000	0.0610	0.0000	2.9828	2.5818	175.9515	37.5700	41	0	0 
02015.997	-0.0190	-0.0034	0.9985	0.0000	0.0610	0.0000	2.9718	2.5708	175.9570	37.5700	41	0	0 
02016.008	-0.0190	-0.0034	0.9985	0.0000	0.0610	0.0000	2.9663	2.5598	175.9625	37.5600	42	0	0 
02016.010	-0.0190	-0.0034	0.9985	0.0000	0.0610	0.0000	2.9553	2.5488	175.9680	37.5600	42	0	0 
02016.010	-0.0190	-0.0034	0.9985	0.0000	0.0610	0.0000	2.9498	2.5378	175.9735	37.5500	42	0	0 
02016.022	-0.0190	-0.0034	0.9985	0.0000	0.0610	0.0000	2.9443	2.5269	175.9790	37.5500	42	0	0 
02016.034	-0.0166	-0.0039	0.9983	0.0000	0.0610	0.0000	2.9333	2.5159	175.9845	37.5600	42	0	0 
02016.034	-0.0166	-0.0039	0.9983	0.0000	0.0610	0.0000	2.9279	2.5049	175.9900	37.5600	42	0	0 
02016.037	-0.0166	-0.0039	0.9983	0.0000	0.0610	0.0000	2.9169	2.4939	175.9955	37.5600	42	0	0 
02016.039	-0.0166	-0.0039	0.9983	0.0000	0.0610	0.0000	2.9114	2.4829	176.0010	37.6000	42	0	0 
02016.039	-0.0166	-0.0039	0.9983	0.0000	0.0610	0.0000	2.9059	2.4719	176.0065	37.6000	42	0	0 
02016.052	-0.0166	-0.0039	0.9983	0.0000	0.0610	0.0000	2.8949	2.4609	176.0120	37.6000	42	0	0 
02016.054	-0.0166	-0.0039	0.9983	0.0000	0.0610	0.0000	2.8894	2.4500	176.0175	37.6000	42	0	0 
02016.054	-0.0166	-0.0039	0.9983	0.0000	0.0610	0.0000	2.8784	2.4390	176.0229	37.5900	42	0	0 
02016.084	-0.0149	-0.0044	0.9980	0.0000	0.0000	0.0000	2.8729	2.4280	176.0229	37.5900	41	0	0 
02016.086	-0.0149	-0.0044	0.9980	0.0000	0.0000	0.0000	2.8674	2.4170	176.0284	37.5500	41	0	0 
02016.086	-0.0149	-0.0044	0.9980	0.0000	0.0000	0.0000	2.8564	2.4060	176.0339	37.5500	40	0	0 
02016.086	-0.0149	-0.0044	0.9980	0.0000	0.0000	0.0000	2.8510	2.3950	176.0394	37.6000	41	0	0 
02016.086	-0.0149	-0.0044	0.9980	0.0000	0.0000	0.0000	2.8400	2.3840	176.0449	37.6000	42	0	0 
02016.095	-0.0149	-0.0044	0.9980	0.0000	0.0000	0.0000	2.8345	2.3730	176.0504	37.5800	40	0	0 
02016.095	-0.0149	-0.0044	0.9980	0.0000	0.0000	0.0000	2.8290	2.3566	176.0559	37.5800	39	0	0 
02016.103	-0.0149	-0.0044	0.9980	0.0000	0.0000	0.0000	2.8180	2.3456	176.0614	37.5900	39	0	0 
02016.106	-0.0142	-0.0046	0.9983	0.0000	0.0000	0.0000	2.8125	2.3346	176.0669	37.5900	40	0	0 
02016.106	-0.0142	-0.0046	0.9983	0.0000	0.0000	0.0000	2.8070	2.3236	176.0724	37.5200	40	0	0 
02016.114	-0.0142	-0.0046	0.9983	0.0000	0.0000	0.0000	2.7960	2.3126	176.0724	37.5200	40	0	0 
02016.124	-0.0142	-0.0046	0.9983	0.0000	0.0000	0.0000	2.7905	2.3016	176.0779	37.5200	39	0	0 
02016.124	-0.0142	-0.0046	0.9983	0.0000	0.0000	0.0000	2.7795	2.2906	176.0834	37.5900	39	0	0 
02016.127	-0.0142	-0.0046	0.9983	0.0000	0.0000	0.0000	2.7740	2.2797	176.0889	37.5900	40	0	0 
02016.138	-0.0142	-0.0046	0.9983	0.0000	0.0000	0.0000	2.7686	2.2687	176.0944	37.5600	40	0	0 
02016.138	-0.0142	-0.0046	0.9983	0.0000	0.0000	0.0000	2.7576	2.2577	176.0999	37.5600	40	0	0 
02016.147	-0.0142	-0.0044	0.9985	0.0000	0.0000	0.0000	2.7521	2.2467	176.1053	37.6000	41	0	0 
02016.150	-0.0142	-0.0044	0.9985	0.0000	0.0000	0.0000	2.7466	2.2357	176.1108	37.6000	41	0	0 
02016.158	-0.0142	-0.0044	0.9985	0.0000	0.0000	0.0000	2.7356	2.2247	176.1108	37.5400	41	0	0 
02016.158	-0.0142	-0.0044	0.9985	0.0000	0.0000	0.0000	2.7301	2.2137	176.1163	37.5400	41	0	0 
02016.164	-0.0142	-0.0044	0.9985	0.0000	0.0000	0.0000	2.7246	2.2028	176.1218	37.6000	41	0	0 
02016.177	-0.0142	-0.0044	0.9985	0.0000	0.0000	0.0000	2.7136	2.1918	176.1273	37.6000	40	0	0 
02016.177	-0.0142	-0.0044	0.9985	0.0000	0.0000	0.0000	2.7081	2.1808	176.1328	37.5500	39	0	0 
02016.180	-0.0142	-0.0044	0.9985	0.0000	0.0000	0.0000	2.7026	2.1698	176.1383	37.5500	39	0	0 
02016.187	-0.0144	-0.0042	0.9985	0.0000	0.0000	0.0000	2.6971	2.1588	176.1438	37.5500	38	0	0 
02016.187	-0.0144	-0.0042	0.9985	0.0000	0.0000	0.0000	2.6862	2.1478	176.1438	37.5500	39	0	0 
02016.198	-0.0144	-0.0042	0.9985	0.0000	0.0000	0.0000	2.6807	2.1368	176.1493	37.5500	39	0	0 
02016.206	-0.0144	-0.0042	0.9985	0.0000	0.0000	0.0000	2.6752	2.1259	176.1548	37.5800	39	0	0 
02016.206	-0.0144	-0.0042	0.9985	0.0000	0.0000	0.0000	2.6642	2.1204	176.1603	37.5800	40	0	0 
02016.208	-0.0144	-0.0042	0.9985	0.0000	0.0000	0.0000	2.6587	2.1094	176.1658	37.5900	40	0	0 
02016.217	-0.0144	-0.0042	0.9985	0.0000	0.0000	0.0000	2.6532	2.0984	176.1713	37.5900	39	0	0 
02016.217	-0.0144	-0.0042	0.9985	0.0000	0.0000	0.0000	2.6477	2.0874	176.1713	37.5400	39	0	0 
02016.222	-0.0149	-0.0039	0.9988	0.0000	0.0000	0.0000	2.6367	2.0764	176.1768	37.5400	39	0	0 
02016.231	-0.0149	-0.0039	0.9988	0.0000	0.0000	0.0000	2.6312	2.0654	176.1823	37.5200	40	0	0 
02016.235	-0.0149	-0.0039	0.9988	0.0000	0.0000	0.0000	2.6257	2.0544	176.1877	37.5200	41	0	0 
02016.235	-0.0149	-0.0039	0.9988	0.0000	0.0000	0.0000	2.6147	2.0435	176.1932	37.5700	41	0	0 
02016.248	-0.0149	-0.0039	0.9988	0.0000	0.0000	0.0000	2.6093	2.0325	176.1987	37.5700	41	0	0 
02016.250	-0.0149	-0.0039	0.9988	0.0000	0.0000	0.0000	2.6038	2.0270	176.1987	37.6300	41	0	0 
02016.250	-0.0149	-0.0039	0.9988	0.0000	0.0000	0.0000	2.5983	2.0160	176.2042	37.6300	42	0	0 
02016.264	-0.0149	-0.0039	0.9988	0.0000	0.0000	0.0000	2.5928	2.0050	176.2097	37.5700	42	0	0 
02016.276	-0.0151	-0.0039	0.9985	0.0000	0.0000	0.0000	2.5818	1.9940	176.2152	37.5700	42	0	0 
02016.276	-0.0151	-0.0039	0.9985	0.0000	0.0000	0.0000	2.5763	1.9830	176.2207	37.5900	43	0	0 
02016.279	-0.0151	-0.0039	0.9985	0.0000	0.0000	0.0000	2.5708	1.9720	176.2262	37.5900	43	0	0 
02016.281	-0.0151	-0.0039	0.9985	0.0000	0.0000	0.0000	2.5653	1.9666	176.2262	37.5900	43	0	0 
02016.281	-0.0151	-0.0039	0.9985	0.0000	0.0000	0.0000	2.5543	1.9556	176.2317	37.6000	43	0	0 
02016.310	-0.0151	-0.0039	0.9985	0.0000	0.0000	0.0000	2.5488	1.9446	176.2372	37.6000	43	0	0 
02016.312	-0.0151	-0.0039	0.9985	0.0000	0.0000	0.0000	2.5433	1.9336	176.2427	37.5900	43	0	0 
02016.312	-0.0151	-0.0039	0.9985	0.0000	0.0000	0.0000	2.5378	1.9226	176.2482	37.5900	42	0	0 
02016.312	-0.0154	-0.0039	0.9983	0.0000	0.0000	0.0000	2.5323	1.9116	176.2482	37.5600	42	0	0 
02016.312	-0.0154	-0.0039	0.9983	0.0000	0.0000	0.0000	2.5214	1.9061	176.2537	37.5600	41	0	0 
02016.312	-0.0154	-0.0039	0.9983	0.0000	0.0000	0.0000	2.5159	1.8951	176.2592	37.6400	41	0	0 
02016.317	-0.0154	-0.0039	0.9983	0.0000	0.0000	0.0000	2.5104	1.8842	176.2646	37.6400	40	0	0 
02016.326	-0.0154	-0.0039	0.9983	0.0000	0.0000	0.0000	2.5049	1.8732	176.2701	37.5500	41	0	0 
02016.330	-0.0154	-0.0039	0.9983	0.0000	0.0000	0.0000	2.4994	1.8677	176.2701	37.5500	41	0	0 
02016.330	-0.0154	-0.0039	0.9983	0.0000	0.0000	0.0000	2.4884	1.8567	176.2756	37.6200	41	0	0 
02016.341	-0.0154	-0.0039	0.9983	0.0000	0.0000	0.0000	2.4829	1.8457	176.2811	37.6200	40	0	0 
02016.353	-0.0156	-0.0042	0.9983	0.0000	0.0000	0.0000	2.4774	1.8347	176.2866	37.5900	41	0	0 
02016.353	-0.0156	-0.0042	0.9983	0.0000	0.0000	0.0000	2.4719	1.8292	176.2866	37.5900	42	0	0 
02016.358	-0.0156	-0.0042	0.9983	0.0000	0.0000	0.0000	2.4664	1.8182	176.2921	37.5800	42	0	0 
02016.360	-0.0156	-0.0042	0.9983	0.0000	0.0000	0.0000	2.4554	1.8073	176.2976	37.5800	42	0	0 
02016.360	-0.0156	-0.0042	0.9983	0.0000	0.0000	0.0000	2.4500	1.8018	176.3031	37.5800	43	0	0 
02016.379	-0.0156	-0.0042	0.9983	0.0000	0.0000	0.0000	2.4445	1.7908	176.3086	37.6000	43	0	0 
02016.388	-0.0156	-0.0042	0.9983	0.0000	0.0000	0.0000	2.4390	1.7798	176.3086	37.6000	43	0	0 
02016.388	-0.0156	-0.0042	0.9983	0.0000	0.0000	0.0000	2.4335	1.7688	176.3141	37.5800	43	0	0 
02016.390	-0.0156	-0.0044	0.9985	0.0000	0.0000	0.0000	2.4280	1.7633	176.3196	37.5800	44	0	0 
02016.395	-0.0156	-0.0044	0.9985	0.0000	0.0000	0.0000	2.4170	1.7523	176.3251	37.5600	44	0	0 
02016.397	-0.0156	-0.0044	0.9985	0.0000	0.0000	0.0000	2.4115	1.7413	176.3251	37.5600	42	0	0 
02016.397	-0.0156	-0.0044	0.9985	0.0000	0.0000	0.0000	2.4060	1.7358	176.3306	37.6000	40	0	0 
02016.408	-0.0156	-0.0044	0.9985	0.0000	0.0000	0.0000	2.4005	1.7249	176.3361	37.6000	40	0	0 
02016.412	-0.0156	-0.0044	0.9985	0.0000	0.0000	0.0000	2.3950	1.7139	176.3416	37.5700	40	0	0 
02016.412	-0.0156	-0.0044	0.9985	0.0000	0.0000	0.0000	2.3895	1.7084	176.3416	37.5700	41	0	0 
02016.420	-0.0156	-0.0044	0.9985	0.0000	0.0000	0.0000	2.3840	1.6974	176.3470	37.6400	42	0	0 
02016.434	-0.0154	-0.0044	0.9988	0.0000	0.0000	0.0000	2.3730	1.6864	176.3525	37.6400	42	0	0 
02016.434	-0.0154	-0.0044	0.9988	0.0000	0.0000	0.0000	2.3676	1.6809	176.3580	37.5800	42	0	0 
02016.436	-0.0154	-0.0044	0.9988	0.0000	0.0000	0.0000	2.3621	1.6699	176.3580	37.5800	43	0	0 
02016.448	-0.0154	-0.0044	0.9988	0.0000	0.0000	0.0000	2.3566	1.6589	176.3635	37.5800	44	0	0 
02016.448	-0.0154	-0.0044	0.9988	0.0000	0.0000	0.0000	2.3511	1.6534	176.3690	37.5800	43	0	0 
02016.451	-0.0154	-0.0044	0.9988	0.0000	0.0000	0.0000	2.3456	1.6425	176.3745	37.5800	43	0	0 
02016.458	-0.0154	-0.0044	0.9988	0.0000	0.0000	0.0000	2.3401	1.6370	176.3745	37.5900	43	0	0 
02016.458	-0.0154	-0.0044	0.9988	0.0000	0.0000	0.0000	2.3346	1.6260	176.3800	37.5900	42	0	0 
02016.461	-0.0154	-0.0044	0.9993	0.0000	0.0000	0.0000	2.3236	1.6150	176.3855	37.6100	42	0	0 
02016.491	-0.0154	-0.0044	0.9993	0.0000	0.0000	0.0000	2.3181	1.6095	176.3910	37.6100	41	0	0 
02016.491	-0.0154	-0.0044	0.9993	0.0000	0.0000	0.0000	2.3126	1.5985	176.3910	37.5800	41	0	0 
02016.493	-0.0154	-0.0044	0.9993	0.0000	0.0000	0.0000	2.3071	1.5875	176.3965	37.5800	40	0	0 
02016.521	-0.0154	-0.0044	0.9993	0.0000	0.0000	0.0000	2.3016	1.5820	176.4020	37.5400	42	0	0 
02016.527	-0.0154	-0.0044	0.9993	0.0000	0.0000	0.0000	2.2961	1.5710	176.4020	37.5400	43	0	0 
02016.527	-0.0154	-0.0044	0.9993	0.0000	0.0000	0.0000	2.2906	1.5656	176.4075	37.5600	43	0	0 
02016.529	-0.0154	-0.0044	0.9993	0.0000	0.0000	0.0000	2.2852	1.5546	176.4130	37.5600	44	0	0 
02016.534	-0.0154	-0.0044	0.9995	0.0000	0.0000	0.0000	2.2797	1.5436	176.4185	37.5700	44	0	0 
02016.534	-0.0154	-0.0044	0.9995	0.0000	0.0000	0.0000	2.2742	1.5381	176.4185	37.5700	44	0	0 
02016.546	-0.0154	-0.0044	0.9995	0.0000	0.0000	0.0000	2.2632	1.5271	176.4240	37.5200	45	0	0 
02016.551	-0.0154	-0.0044	0.9995	0.0000	0.0000	0.0000	2.2577	1.5216	176.4294	37.5200	46	0	0 
02016.551	-0.0154	-0.0044	0.9995	0.0000	0.0000	0.0000	2.2522	1.5106	176.4294	37.5400	46	0	0 
02016.553	-0.0154	-0.0044	0.9995	0.0000	0.0000	0.0000	2.2467	1.5051	176.4349	37.5400	45	0	0 
02016.557	-0.0154	-0.0044	0.9995	0.0000	0.0000	0.0000	2.2412	1.4941	176.4404	37.5400	44	0	0 
02016.557	-0.0154	-0.0044	0.9995	0.0000	0.0000	0.0000	2.2357	1.4886	176.4459	37.6100	44	0	0 
02016.566	-0.0156	-0.0044	0.9995	0.0000	0.0000	0.0000	2.2302	1.4777	176.4459	37.6100	44	0	0 
02016.571	-0.0156	-0.0044	0.9995	0.0000	0.0000	0.0000	2.2247	1.4667	176.4514	37.5600	44	0	0 
02016.571	-0.0156	-0.0044	0.9995	0.0000	0.0000	0.0000	2.2192	1.4612	176.4569	37.5600	43	0	0 
02016.573	-0.0156	-0.0044	0.9995	0.0000	0.0000	0.0000	2.2137	1.4502	176.4569	37.6100	42	0	0 
02016.578	-0.0156	-0.0044	0.9995	0.0000	0.0000	0.0000	2.2083	1.4447	176.4624	37.6100	41	0	0 
02016.597	-0.0156	-0.0044	0.9995	0.0000	0.0000	0.0000	2.2028	1.4337	176.4679	37.5800	41	0	0 
02016.597	-0.0156	-0.0044	0.9995	0.0000	0.0000	0.0000	2.1973	1.4282	176.4679	37.5800	40	0	0 
02016.605	-0.0156	-0.0044	0.9995	0.0000	0.0000	0.0000	2.1918	1.4172	176.4734	37.5600	40	0	0 
02016.607	-0.0156	-0.0044	0.9995	0.0000	0.0000	0.0000	2.1863	1.4117	176.4789	37.5600	39	0	0 
02016.607	-0.0156	-0.0044	0.9995	0.0000	0.0000	0.0000	2.1808	1.4008	176.4789	37.5500	40	0	0 
02016.612	-0.0156	-0.0044	0.9995	0.0000	0.0000	0.0000	2.1753	1.3953	176.4844	37.5500	40	0	0 
02016.617	-0.0156	-0.0044	0.9995	0.0000	0.0000	0.0000	2.1698	1.3843	176.4899	37.5800	40	0	0 
02016.617	-0.0156	-0.0044	0.9995	0.0000	0.0000	0.0000	2.1643	1.3788	176.4954	37.5800	40	0	0 
02016.622	-0.0156	-0.0044	0.9995	0.0000	0.0000	0.0000	2.1588	1.3678	176.4954	37.5800	39	0	0 
02016.625	-0.0156	-0.0044	0.9995	0.0000	0.0000	0.0000	2.1533	1.3623	176.5009	37.5600	38	0	0 
02016.625	-0.0156	-0.0044	0.9995	0.0000	0.0000	0.0000	2.1423	1.3568	176.5063	37.5600	38	0	0 
02016.627	-0.0156	-0.0042	0.9993	0.0000	0.0000	0.0000	2.1368	1.3458	176.5063	37.5500	38	0	0 
02016.630	-0.0156	-0.0042	0.9993	0.0000	0.0000	0.0000	2.1313	1.3403	176.5118	37.5500	39	0	0 
02016.638	-0.0156	-0.0042	0.9993	0.0000	0.0000	0.0000	2.1259	1.3293	176.5173	37.5600	39	0	0 
02016.639	-0.0156	-0.0042	0.9993	0.0000	0.0000	0.0000	2.1204	1.3239	176.5173	37.5600	39	0	0 
02016.646	-0.0156	-0.0042	0.9993	0.0000	0.0000	0.0000	2.1149	1.3129	176.5228	37.5900	39	0	0 
02016.650	-0.0156	-0.0042	0.9993	0.0000	0.0000	0.0000	2.1094	1.3074	176.5283	37.5900	39	0	0 
02016.650	-0.0156	-0.0042	0.9993	0.0000	0.0000	0.0000	2.1094	1.2964	176.5283	37.5800	40	0	0 
02016.661	-0.0156	-0.0042	0.9993	0.0000	0.0000	0.0000	2.1039	1.2909	176.5338	37.5800	40	0	0 
02016.666	-0.0156	-0.0042	0.9990	0.0000	0.0000	0.0000	2.0984	1.2854	176.5338	37.6200	41	0	0 
02016.666	-0.0156	-0.0042	0.9990	0.0000	0.0000	0.0000	2.0929	1.2744	176.5393	37.6200	41	0	0 
02016.676	-0.0156	-0.0042	0.9990	0.0000	0.0000	0.0000	2.0874	1.2689	176.5448	37.6200	40	0	0 
02016.693	-0.0156	-0.0042	0.9990	0.0000	0.0000	0.0000	2.0819	1.2579	176.5448	37.6200	40	0	0 
02016.693	-0.0156	-0.0042	0.9990	0.0000	0.0000	0.0000	2.0764	1.2524	176.5503	37.5600	40	0	0 
02016.695	-0.0156	-0.0042	0.9990	0.0000	0.0000	0.0000	2.0709	1.2415	176.5558	37.5600	41	0	0 
02016.720	-0.0156	-0.0042	0.9990	0.0000	0.0000	0.0000	2.0654	1.2360	176.5558	37.5600	42	0	0 
02016.720	-0.0156	-0.0042	0.9990	0.0000	0.0000	0.0000	2.0599	1.2305	176.5613	37.6300	42	0	0 
02016.722	-0.0154	-0.0042	0.9990	0.0000	0.0000	0.0000	2.0544	1.2195	176.5668	37.6300	41	0	0 
02016.722	-0.0154	-0.0042	0.9990	0.0000	0.0000	0.0000	2.0490	1.2140	176.5668	37.5900	40	0	0 
02016.722	-0.0154	-0.0042	0.9990	0.0000	0.0000	0.0000	2.0435	1.2085	176.5723	37.5900	39	0	0 
02016.722	-0.0154	-0.0042	0.9990	0.0000	0.0000	0.0000	2.0380	1.1975	176.5778	37.5500	39	0	0 
02016.732	-0.0154	-0.0042	0.9990	0.0000	0.0000	0.0000	2.0325	1.1920	176.5778	37.5500	39	0	0 
02016.734	-0.0154	-0.0042	0.9990	0.0000	0.0000	0.0000	2.0270	1.1810	176.5833	37.5100	40	0	0 
02016.734	-0.0154	-0.0042	0.9990	0.0000	0.0000	0.0000	2.0215	1.1755	176.5833	37.5100	41	0	0 
02016.745	-0.0154	-0.0042	0.9990	0.0000	0.0000	0.0000	2.0160	1.1700	176.5887	37.5900	41	0	0 
02016.748	-0.0154	-0.0039	0.9988	0.0000	0.0000	0.0000	2.0105	1.1591	176.5942	37.5900	41	0	0 
02016.748	-0.0154	-0.0039	0.9988	0.0000	0.0000	0.0000	2.0050	1.1536	176.5942	37.5900	41	0	0 
02016.754	-0.0154	-0.0039	0.9988	0.0000	0.0000	0.0000	1.9995	1.1481	176.5997	37.5900	40	0	0 
02016.767	-0.0154	-0.0039	0.9988	0.0000	0.0000	0.0000	1.9940	1.1371	176.6052	37.5600	41	0	0 
02016.767	-0.0154	-0.0039	0.9988	0.0000	0.0000	0.0000	1.9940	1.1316	176.6052	37.5600	42	0	0 
02016.770	-0.0154	-0.0039	0.9988	0.0000	0.0000	0.0000	1.9885	1.1206	176.6107	37.5600	43	0	0 
02016.774	-0.0154	-0.0039	0.9988	0.0000	0.0000	0.0000	1.9830	1.1151	176.6107	37.5600	43	0	0 
02016.774	-0.0154	-0.0039	0.9988	0.0000	0.0000	0.0000	1.9775	1.1096	176.6162	37.5600	42	0	0 
02016.785	-0.0154	-0.0039	0.9990	0.0000	0.0000	0.0000	1.9720	1.0986	176.6217	37.5400	43	0	0 
02016.792	-0.0154	-0.0039	0.9990	0.0000	0.0000	0.0000	1.9666	1.0931	176.6217	37.5400	43	0	0 
02016.792	-0.0154	-0.0039	0.9990	0.0000	0.0000	0.0000	1.9611	1.0876	176.6272	37.5600	44	0	0 
02016.795	-0.0154	-0.0039	0.9990	0.0000	0.0000	0.0000	1.9556	1.0767	176.6272	37.5600	45	0	0 
02016.807	-0.0154	-0.0039	0.9990	0.0000	0.0000	0.0000	1.9501	1.0712	176.6327	37.5500	44	0	0 
02016.807	-0.0154	-0.0039	0.9990	0.0000	0.0000	0.0000	1.9446	1.0657	176.6382	37.5500	43	0	0 
02016.810	-0.0154	-0.0039	0.9990	0.0000	0.0000	0.0000	1.9391	1.0602	176.6382	37.5300	42	0	0 
02016.822	-0.0154	-0.0039	0.9990	0.0000	0.0000	0.0000	1.9391	1.0492	176.6437	37.5300	42	0	0 
02016.829	-0.0154	-0.0042	0.9990	0.0000	0.0000	0.0000	1.9336	1.0437	176.6492	37.5500	42	0	0 
02016.829	-0.0154	-0.0042	0.9990	0.0000	0.0000	0.0000	1.9281	1.0382	176.6492	37.5500	42	0	0 
02016.832	-0.0154	-0.0042	0.9990	0.0000	0.0000	0.0000	1.9226	1.0272	176.6547	37.6500	43	0	0 
02016.845	-0.0154	-0.0042	0.9990	0.0000	0.0000	0.0000	1.9171	1.0217	176.6547	37.6500	43	0	0 
02016.845	-0.0154	-0.0042	0.9990	0.0000	0.0000	0.0000	1.9116	1.0162	176.6602	37.5100	43	0	0 
02016.850	-0.0154	-0.0042	0.9990	0.0000	0.0000	0.0000	1.9061	1.0052	176.6602	37.5100	43	0	0 
02016.860	-0.0154	-0.0042	0.9990	0.0000	0.0000	0.0000	1.9006	0.9998	176.6656	37.5600	42	0	0 
02016.860	-0.0154	-0.0042	0.9990	0.0000	0.0000	0.0000	1.8951	0.9943	176.6711	37.5600	42	0	0 
02016.862	-0.0156	-0.0044	0.9993	0.0000	0.0000	0.0000	1.8951	0.9888	176.6711	37.5600	41	0	0 
02016.873	-0.0156	-0.0044	0.9993	0.0000	0.0000	0.0000	1.8896	0.9778	176.6766	37.5600	39	0	0 
02016.873	-0.0156	-0.0044	0.9993	0.0000	0.0000	0.0000	1.8842	0.9723	176.6766	37.5600	40	0	0 
02016.899	-0.0156	-0.0044	0.9993	0.0000	0.0000	0.0000	1.8787	0.9668	176.6821	37.6100	40	0	0 
02016.901	-0.0156	-0.0044	0.9993	0.0000	0.0000	0.0000	1.8732	0.9613	176.6876	37.6100	39	0	0 
02016.901	-0.0156	-0.0044	0.9993	0.0000	0.0000	0.0000	1.8677	0.9503	176.6876	37.5700	39	0	0 
02016.901	-0.0156	-0.0044	0.9993	0.0000	0.0000	0.0000	1.8622	0.9448	176.6931	37.5700	39	0	0 
02016.903	-0.0156	-0.0044	0.9993	0.0000	0.0000	0.0000	1.8567	0.9393	176.6931	37.6500	40	0	0 
02016.907	-0.0156	-0.0044	0.9993	0.0000	0.0000	0.0000	1.8567	0.9338	176.6986	37.6500	41	0	0 
02016.907	-0.0156	-0.0044	0.9993	0.0000	0.0000	0.0000	1.8512	0.9229	176.6986	37.5700	42	0	0 
02016.913	-0.0156	-0.0044	0.9993	0.0000	0.0000	0.0000	1.8457	0.9174	176.7041	37.5700	42	0	0 
02016.926	-0.0156	-0.0044	0.9993	0.0000	0.0000	0.0000	1.8402	0.9119	176.7096	37.6000	42	0	0 
02016.926	-0.0156	-0.0044	0.9993	0.0000	0.0000	0.0000	1.8347	0.9064	176.7096	37.6000	43	0	0 
02016.928	-0.0156	-0.0044	0.9993	0.0000	0.0000	0.0000	1.8292	0.9009	176.7151	37.6100	44	0	0 
02016.938	-0.0156	-0.0044	0.9993	0.0000	0.0000	0.0000	1.8237	0.8899	176.7151	37.6100	45	0	0 
02016.938	-0.0156	-0.0044	0.9993	0.0000	0.0000	0.0000	1.8237	0.8844	176.7206	37.6100	45	0	0 
02016.947	-0.0156	-0.0044	0.9993	0.0000	0.0000	0.0000	1.8182	0.8789	176.7206	37.5500	44	0	0 
02016.950	-0.0156	-0.0044	0.9993	0.0000	0.0000	0.0000	1.8127	0.8734	176.7261	37.5500	43	0	0 
02016.950	-0.0156	-0.0044	0.9993	0.0000	0.0000	0.0000	1.8073	0.8679	176.7261	37.6100	43	0	0 
02016.961	-0.0156	-0.0044	0.9993	0.0000	0.0000	0.0000	1.8018	0.8569	176.7316	37.6100	44	0	0 
02016.967	-0.0156	-0.0044	0.9993	0.0000	0.0000	0.0000	1.7963	0.8514	176.7371	37.5700	44	0	0 
02016.967	-0.0156	-0.0044	0.9993	0.0000	0.0000	0.0000	1.7963	0.8459	176.7371	37.5700	43	0	0 
02016.971	-0.0156	-0.0044	0.9993	0.0000	0.0000	0.0000	1.7908	0.8405	176.7426	37.6000	43	0	0 
02016.981	-0.0156	-0.0044	0.9993	0.0000	0.0000	0.0000	1.7853	0.8350	176.7426	37.6000	44	0	0 
02016.985	-0.0156	-0.0044	0.9990	0.0000	0.0000	0.0000	1.7798	0.8295	176.7480	37.6300	43	0	0 
02016.985	-0.0156	-0.0044	0.9990	0.0000	0.0000	0.0000	1.7743	0.8185	176.7480	37.6300	43	0	0 
02016.998	-0.0156	-0.0044	0.9990	0.0000	0.0000	0.0000	1.7743	0.8130	176.7535	37.5800	44	0	0 
02017.008	-0.0156	-0.0044	0.9990	0.0000	0.0000	0.0000	1.7688	0.8075	176.7535	37.5800	45	0	0 
02017.008	-0.0156	-0.0044	0.9990	0.0000	0.0000	0.0000	1.7633	0.8020	176.7590	37.5300	46	0	0 
02017.013	-0.0156	-0.0044	0.9990	0.0000	0.0000	0.0000	1.7578	0.7965	176.7590	37.5300	45	0	0 
02017.015	-0.0156	-0.0044	0.9990	0.0000	0.0000	0.0000	1.7523	0.7910	176.7645	37.5900	45	0	0 
02017.015	-0.0156	-0.0044	0.9990	0.0000	0.0000	0.0000	1.7468	0.7800	176.7700	37.5900	44	0	0 
02017.025	-0.0154	-0.0042	0.9990	0.0000	0.0000	0.0000	1.7468	0.7745	176.7700	37.5900	43	0	0 
02017.039	-0.0154	-0.0042	0.9990	0.0000	0.0000	0.0000	1.7413	0.7690	176.7755	37.5700	43	0	0 
02017.039	-0.0154	-0.0042	0.9990	0.0000	0.0000	0.0000	1.7358	0.7635	176.7755	37.5700	43	0	0 
02017.043	-0.0154	-0.0042	0.9990	0.0000	0.0000	0.0000	1.7303	0.7581	176.7810	37.5000	43	0	0 
02017.045	-0.0154	-0.0042	0.9990	0.0000	0.0000	0.0000	1.7249	0.7526	176.7810	37.5000	43	0	0 
02017.045	-0.0154	-0.0042	0.9990	0.0000	0.0000	0.0000	1.7249	0.7471	176.7865	37.5900	43	0	0 
02017.054	-0.0154	-0.0042	0.9990	0.0000	0.0000	0.0000	1.7194	0.7361	176.7865	37.5900	42	0	0 
02017.064	-0.0154	-0.0042	0.9990	0.0000	0.0000	0.0000	1.7139	0.7306	176.7920	37.5600	42	0	0 
02017.068	-0.0154	-0.0042	0.9993	0.0000	0.0000	0.0000	1.7084	0.7251	176.7920	37.5600	41	0	0 
02017.068	-0.0154	-0.0042	0.9993	0.0000	0.0000	0.0000	1.7084	0.7196	176.7975	37.6300	42	0	0 
02017.074	-0.0154	-0.0042	0.9993	0.0000	0.0000	0.0000	1.7029	0.7141	176.7975	37.6300	42	0	0 
02017.082	-0.0154	-0.0042	0.9993	0.0000	0.0000	0.0000	1.6974	0.7086	176.8030	37.5400	42	0	0 
02017.082	-0.0154	-0.0042	0.9993	0.0000	0.0000	0.0000	1.6919	0.7031	176.8030	37.5400	42	0	0 
02017.094	-0.0154	-0.0042	0.9993	0.0000	0.0000	0.0000	1.6919	0.6976	176.8085	37.6000	42	0	0 
02017.099	-0.0154	-0.0042	0.9993	0.0000	0.0000	0.0000	1.6864	0.6866	176.8085	37.6000	42	0	0 
02017.099	-0.0154	-0.0042	0.9993	0.0000	0.0000	0.0000	1.6809	0.6812	176.8140	37.5800	41	0	0 
02017.101	-0.0154	-0.0042	0.9993	0.0000	0.0000	0.0000	1.6754	0.6757	176.8140	37.5800	41	0	0 
02017.127	-0.0154	-0.0042	0.9993	0.0000	0.0000	0.0000	1.6699	0.6702	176.8195	37.5800	41	0	0 
02017.127	-0.0154	-0.0042	0.9993	0.0000	0.0000	0.0000	1.6699	0.6647	176.8195	37.5800	42	0	0 
02017.129	-0.0154	-0.0042	0.9993	0.0000	0.0000	0.0000	1.6644	0.6592	176.8250	37.5800	41	0	0 
02017.129	-0.0154	-0.0042	0.9993	0.0000	0.0000	0.0000	1.6589	0.6537	176.8250	37.5600	40	0	0 
02017.129	-0.0154	-0.0042	0.9993	0.0000	0.0000	0.0000	1.6534	0.6482	176.8304	37.5600	40	0	0 
02017.131	-0.0154	-0.0042	0.9993	0.0000	0.0000	0.0000	1.6534	0.6427	176.8304	37.5700	39	0	0 
02017.164	-0.0154	-0.0042	0.9993	0.0000	0.0000	0.0000	1.6479	0.6372	176.8359	37.5700	40	0	0 
02017.164	-0.0154	-0.0042	0.9990	0.0000	0.0000	0.0000	1.6425	0.6317	176.8359	37.5600	40	0	0 
02017.166	-0.0154	-0.0042	0.9990	0.0000	0.0000	0.0000	1.6370	0.6262	176.8414	37.5600	40	0	0 
02017.172	-0.0154	-0.0042	0.9990	0.0000	0.0000	0.0000	1.6370	0.6152	176.8414	37.5900	39	0	0 
02017.174	-0.0154	-0.0042	0.9990	0.0000	0.0000	0.0000	1.6315	0.6097	176.8469	37.5900	40	0	0 
02017.174	-0.0154	-0.0042	0.9990	0.0000	0.0000	0.0000	1.6260	0.6042	176.8469	37.6100	41	0	0 
02017.176	-0.0154	-0.0042	0.9990	0.0000	0.0000	0.0000	1.6260	0.5988	176.8524	37.6100	42	0	0 
02017.179	-0.0154	-0.0042	0.9990	0.0000	0.0000	0.0000	1.6205	0.5933	176.8524	37.5400	42	0	0 
02017.179	-0.0154	-0.0042	0.9990	0.0000	0.0000	0.0000	1.6150	0.5878	176.8579	37.5400	43	0	0 
02017.184	-0.0154	-0.0044	0.9988	0.0000	0.0000	0.0000	1.6095	0.5823	176.8579	37.5600	43	0	0 
02017.193	-0.0154	-0.0044	0.9988	0.0000	0.0000	0.0000	1.6095	0.5768	176.8634	37.5600	43	0	0 
02017.207	-0.0154	-0.0044	0.9988	0.0000	0.0000	0.0000	1.6040	0.5713	176.8634	37.5600	43	0	0 
02017.207	-0.0154	-0.0044	0.9988	0.0000	0.0000	0.0000	1.5985	0.5658	176.8689	37.5200	43	0	0 
02017.217	-0.0154	-0.0044	0.9988	0.0000	0.0000	0.0000	1.5930	0.5603	176.8689	37.5200	43	0	0 
02017.219	-0.0154	-0.0044	0.9988	0.0000	0.0000	0.0000	1.5930	0.5548	176.8744	37.5600	44	0	0 
02017.219	-0.0154	-0.0044	0.9988	0.0000	0.0000	0.0000	1.5875	0.5493	176.8744	37.5600	45	0	0 
02017.221	-0.0154	-0.0044	0.9988	0.0000	0.0000	0.0000	1.5820	0.5438	176.8799	37.5600	44	0	0 
02017.225	-0.0154	-0.0044	0.9985	0.0000	0.0000	0.0000	1.5820	0.5383	176.8799	37.5600	43	0	0 
02017.225	-0.0154	-0.0044	0.9985	0.0000	0.0000	0.0000	1.5765	0.5328	176.8854	37.5600	42	0	0 
02017.244	-0.0154	-0.0044	0.9985	0.0000	0.0000	0.0000	1.5710	0.5273	176.8854	37.5600	42	0	0 
02017.249	-0.0154	-0.0044	0.9985	0.0000	0.0000	0.0000	1.5656	0.5219	176.8909	37.5400	41	0	0 
02017.249	-0.0154	-0.0044	0.9985	0.0000	0.0000	0.0000	1.5656	0.5164	176.8909	37.5400	41	0	0 
02017.257	-0.0154	-0.0044	0.9985	0.0000	0.0000	0.0000	1.5601	0.5109	176.8964	37.5900	41	0	0 
02017.265	-0.0154	-0.0044	0.9985	0.0000	0.0000	0.0000	1.5546	0.5054	176.8964	37.5900	41	0	0 
02017.265	-0.0154	-0.0044	0.9985	0.0000	0.0000	0.0000	1.5546	0.4999	176.9019	37.5900	42	0	0 
02017.268	-0.0154	-0.0046	0.9985	0.0000	0.0000	0.0000	1.5491	0.4944	176.9019	37.5900	42	0	0 
02017.270	-0.0154	-0.0046	0.9985	0.0000	0.0000	0.0000	1.5436	0.4889	176.9073	37.6000	42	0	0 
02017.302	-0.0154	-0.0046	0.9985	0.0000	0.0000	0.0000	1.5436	0.4834	176.9073	37.6000	42	0	0 
02017.302	-0.0154	-0.0046	0.9985	0.0000	0.0000	0.0000	1.5381	0.4779	176.9073	37.6000	42	0	0 
02017.304	-0.0154	-0.0046	0.9985	0.0000	0.0000	0.0000	1.5326	0.4724	176.9128	37.5700	41	0	0 
02017.304	-0.0154	-0.0046	0.9985	0.0000	0.0000	0.0000	1.5271	0.4669	176.9128	37.5700	41	0	0 
02017.304	-0.0154	-0.0046	0.9985	0.0000	0.0000	0.0000	1.5271	0.4614	176.9183	37.5600	41	0	0 
02017.304	-0.0154	-0.0046	0.9985	0.0000	0.0000	0.0000	1.5216	0.4559	176.9183	37.5600	41	0	0 
02017.306	-0.0156	-0.0046	0.9985	0.0000	0.0000	0.0000	1.5161	0.4504	176.9238	37.6200	41	0	0 
02017.306	-0.0156	-0.0046	0.9985	0.0000	0.0000	0.0000	1.5161	0.4449	176.9238	37.6200	40	0	0 
02017.316	-0.0156	-0.0046	0.9985	0.0000	0.0000	0.0000	1.5106	0.4395	176.9293	37.6000	41	0	0 
02017.328	-0.0156	-0.0046	0.9985	0.0000	0.0000	0.0000	1.5051	0.4340	176.9293	37.6000	42	0	0 
02017.328	-0.0156	-0.0046	0.9985	0.0000	0.0000	0.0000	1.5051	0.4285	176.9348	37.5800	42	0	0 
02017.333	-0.0156	-0.0046	0.9985	0.0000	0.0000	0.0000	1.4996	0.4230	176.9348	37.5800	41	0	0 
02017.335	-0.0156	-0.0046	0.9985	0.0000	0.0000	0.0000	1.4941	0.4175	176.9348	37.5500	42	0	0 
02017.335	-0.0156	-0.0046	0.9985	0.0000	0.0000	0.0000	1.4941	0.4120	176.9403	37.5500	42	0	0 
02017.348	-0.0156	-0.0046	0.9985	0.0000	0.0000	0.0000	1.4886	0.4065	176.9403	37.5800	41	0	0 
02017.350	-0.0156	-0.0046	0.9985	0.0000	0.0000	0.0000	1.4832	0.4010	176.9458	37.5800	40	0	0 
02017.350	-0.0156	-0.0046	0.9985	0.0000	0.0000	0.0000	1.4832	0.3955	176.9458	37.5800	39	0	0 
02017.374	-0.0156	-0.0046	0.9985	0.0000	0.0000	0.0000	1.4777	0.3955	176.9513	37.5700	38	0	0 
02017.376	-0.0156	-0.0046	0.9985	0.0000	0.0000	0.0000	1.4722	0.3900	176.9513	37.5700	38	0	0 
02017.379	-0.0156	-0.0046	0.9985	0.0000	0.0000	0.0000	1.4722	0.3845	176.9568	37.6200	38	0	0 
02017.379	-0.0156	-0.0046	0.9985	0.0000	0.0000	0.0000	1.4667	0.3790	176.9568	37.6200	39	0	0 
02017.381	-0.0156	-0.0046	0.9985	0.0000	0.0000	0.0000	1.4612	0.3735	176.9568	37.5700	39	0	0 
02017.389	-0.0159	-0.0046	0.9985	0.0000	0.0000	0.0000	1.4612	0.3680	176.9623	37.5700	38	0	0 
02017.389	-0.0159	-0.0046	0.9985	0.0000	0.0000	0.0000	1.4557	0.3625	176.9623	37.5900	38	0	0 
02017.396	-0.0159	-0.0046	0.9985	0.0000	0.0000	0.0000	1.4502	0.3571	176.9678	37.5900	38	0	0 
02017.402	-0.0159	-0.0046	0.9985	0.0000	0.0000	0.0000	1.4502	0.3516	176.9678	37.6000	39	0	0 
02017.402	-0.0159	-0.0046	0.9985	0.0000	0.0000	0.0000	1.4447	0.3461	176.9733	37.6000	39	0	0 
02017.408	-0.0159	-0.0046	0.9985	0.0000	0.0000	0.0000	1.4392	0.3406	176.9733	37.6200	39	0	0 
02017.419	-0.0159	-0.0046	0.9985	0.0000	0.0000	0.0000	1.4392	0.3406	176.9733	37.6200	39	0	0 
02017.419	-0.0159	-0.0046	0.9985	0.0000	0.0000	0.0000	1.4337	0.3351	176.9788	37.5600	40	0	0 
02017.421	-0.0159	-0.0044	0.9985	0.0000	0.0000	0.0000	1.4282	0.3296	176.9788	37.5600	40	0	0 
02017.434	-0.0159	-0.0044	0.9985	0.0000	0.0000	0.0000	1.4282	0.3241	176.9843	37.5900	41	0	0 
02017.437	-0.0159	-0.0044	0.9985	0.0000	0.0000	0.0000	1.4227	0.3186	176.9843	37.5900	41	0	0 
02017.437	-0.0159	-0.0044	0.9985	0.0000	0.0000	0.0000	1.4172	0.3131	176.9897	37.5900	41	0	0 
02017.449	-0.0159	-0.0044	0.9985	0.0000	0.0000	0.0000	1.4172	0.3076	176.9897	37.5600	41	0	0 
02017.451	-0.0159	-0.0044	0.9985	0.0000	0.0000	0.0000	1.4117	0.3021	176.9897	37.5600	41	0	0 
02017.451	-0.0159	-0.0044	0.9985	0.0000	0.0000	0.0000	1.4117	0.2966	176.9952	37.5800	42	0	0 
02017.466	-0.0159	-0.0044	0.9985	0.0000	0.0000	0.0000	1.4063	0.2966	176.9952	37.5800	42	0	0 
02017.470	-0.0159	-0.0042	0.9988	0.0000	0.0000	0.0000	1.4008	0.2911	177.0007	37.5700	42	0	0 
02017.470	-0.0159	-0.0042	0.9988	0.0000	0.0000	0.0000	1.4008	0.2856	177.0007	37.5700	42	0	0 
02017.472	-0.0159	-0.0042	0.9988	0.0000	0.0000	0.0000	1.3953	0.2802	177.0007	37.6100	41	0	0 
02017.487	-0.0159	-0.0042	0.9988	0.0000	0.0000	0.0000	1.3953	0.2747	177.0062	37.6100	41	0	0 
02017.487	-0.0159	-0.0042	0.9988	0.0000	0.0000	0.0000	1.3898	0.2692	177.0062	37.5600	40	0	0 
02017.494	-0.0159	-0.0042	0.9988	0.0000	0.0000	0.0000	1.3843	0.2637	177.0117	37.5600	41	0	0 
02017.497	-0.0159	-0.0042	0.9988	0.0000	0.0000	0.0000	1.3843	0.2637	177.0117	37.5800	42	0	0 
02017.497	-0.0159	-0.0042	0.9988	0.0000	0.0000	0.0000	1.3788	0.2582	177.0117	37.5800	42	0	0 
02017.531	-0.0159	-0.0039	0.9993	0.0000	0.0000	0.0000	1.3788	0.2527	177.0172	37.6000	42	0	0 
02017.533	-0.0159	-0.0039	0.9993	0.0000	0.0000	0.0000	1.3733	0.2472	177.0172	37.6000	43	0	0 
02017.533	-0.0159	-0.0039	0.9993	0.0000	0.0000	0.0000	1.3678	0.2417	177.0227	37.6000	43	0	0 
02017.533	-0.0159	-0.0039	0.9993	0.0000	0.0000	0.0000	1.3678	0.2362	177.0227	37.6000	44	0	0 
02017.538	-0.0159	-0.0039	0.9993	0.0000	0.0000	0.0000	1.3623	0.2362	177.0282	37.6000	44	0	0 
02017.541	-0.0159	-0.0039	0.9993	0.0000	0.0000	0.0000	1.3623	0.2307	177.0282	37.5900	43	0	0 
02017.541	-0.0159	-0.0039	0.9993	0.0000	0.0000	0.0000	1.3568	0.2252	177.0282	37.5900	43	0	0 
02017.546	-0.0159	-0.0039	0.9993	0.0000	0.0000	0.0000	1.3513	0.2197	177.0337	37.5600	42	0	0 
02017.548	-0.0156	-0.0039	0.9993	0.0000	0.0000	0.0000	1.3513	0.2142	177.0337	37.5600	41	0	0 
02017.548	-0.0156	-0.0039	0.9993	0.0000	0.0000	0.0000	1.3458	0.2087	177.0392	37.5600	41	0	0 
02017.555	-0.0156	-0.0039	0.9993	0.0000	0.0000	0.0000	1.3458	0.2087	177.0392	37.5600	40	0	0 
02017.566	-0.0156	-0.0039	0.9993	0.0000	0.0000	0.0000	1.3403	0.2032	177.0392	37.5600	40	0	0 
02017.566	-0.0156	-0.0039	0.9993	0.0000	0.0000	0.0000	1.3403	0.1978	177.0447	37.5600	40	0	0 
02017.568	-0.0156	-0.0039	0.9993	0.0000	0.0000	0.0000	1.3348	0.1923	177.0447	37.4600	40	0	0 
02017.581	-0.0156	-0.0039	0.9993	0.0000	0.0000	0.0000	1.3293	0.1868	177.0447	37.4600	40	0	0 
02017.581	-0.0156	-0.0039	0.9993	0.0000	0.0000	0.0000	1.3293	0.1813	177.0502	37.5500	40	0	0 
02017.586	-0.0156	-0.0039	0.9995	0.0000	0.0000	0.0000	1.3239	0.1813	177.0502	37.5500	40	0	0 
02017.594	-0.0156	-0.0039	0.9995	0.0000	0.0000	0.0000	1.3239	0.1758	177.0557	37.5700	40	0	0 
02017.601	-0.0156	-0.0039	0.9995	0.0000	0.0000	0.0000	1.3184	0.1703	177.0557	37.5700	40	0	0 
02017.601	-0.0156	-0.0039	0.9995	0.0000	0.0000	0.0000	1.3184	0.1648	177.0557	37.5700	40	0	0 
02017.606	-0.0156	-0.0039	0.9995	0.0000	0.0000	0.0000	1.3129	0.1593	177.0612	37.5700	40	0	0 
02017.612	-0.0156	-0.0039	0.9995	0.0000	0.0000	0.0000	1.3129	0.1593	177.0612	37.5700	40	0	0 
02017.612	-0.0156	-0.0039	0.9995	0.0000	0.0000	0.0000	1.3074	0.1538	177.0667	37.6100	41	0	0 
02017.621	-0.0156	-0.0039	0.9995	0.0000	0.0000	0.0000	1.3019	0.1483	177.0667	37.6100	41	0	0 
02017.627	-0.0156	-0.0039	0.9990	0.0000	0.0000	0.0000	1.3019	0.1428	177.0667	37.5900	41	0	0 
02017.627	-0.0156	-0.0039	0.9990	0.0000	0.0000	0.0000	1.2964	0.1373	177.0721	37.5900	41	0	0 
02017.636	-0.0156	-0.0039	0.9990	0.0000	0.0000	0.0000	1.2964	0.1373	177.0721	37.6000	41	0	0 
02017.643	-0.0156	-0.0039	0.9990	0.0000	0.0000	0.0000	1.2909	0.1318	177.0721	37.6000	41	0	0 
02017.643	-0.0156	-0.0039	0.9990	0.0000	0.0000	0.0000	1.2909	0.1263	177.0776	37.5300	42	0	0 
02017.650	-0.0156	-0.0039	0.9990	0.0000	0.0000	0.0000	1.2854	0.1208	177.0776	37.5300	41	0	0 
02017.656	-0.0156	-0.0039	0.9990	0.0000	0.0000	0.0000	1.2854	0.1154	177.0831	37.5500	41	0	0 
02017.656	-0.0156	-0.0039	0.9990	0.0000	0.0000	0.0000	1.2799	0.1154	177.0831	37.5500	42	0	0 
02017.667	-0.0156	-0.0042	0.9985	0.0000	0.0000	0.0000	1.2799	0.1099	177.0831	37.5900	42	0	0 
02017.674	-0.0156	-0.0042	0.9985	0.0000	0.0000	0.0000	1.2744	0.1044	177.0886	37.5900	43	0	0 
02017.676	-0.0156	-0.0042	0.9985	0.0000	0.0000	0.0000	1.2689	0.0989	177.0886	37.6400	43	0	0 
02017.676	-0.0156	-0.0042	0.9985	0.0000	0.0000	0.0000	1.2689	0.0989	177.0886	37.6400	43	0	0 
02017.706	-0.0156	-0.0042	0.9985	0.0000	0.0000	0.0000	1.2634	0.0934	177.0941	37.6400	44	0	0 
02017.708	-0.0156	-0.0042	0.9985	0.0000	0.0000	0.0000	1.2634	0.0879	177.0941	37.5700	43	0	0 
02017.708	-0.0156	-0.0042	0.9985	0.0000	0.0000	0.0000	1.2579	0.0824	177.0996	37.5700	42	0	0 
02017.708	-0.0156	-0.0042	0.9985	0.0000	0.0000	0.0000	1.2579	0.0824	177.0996	37.6500	41	0	0 
02017.710	-0.0156	-0.0044	0.9980	0.0000	0.0000	0.0000	1.2524	0.0769	177.0996	37.6500	40	0	0 
02017.710	-0.0156	-0.0044	0.9980	0.0000	0.0000	0.0000	1.2524	0.0714	177.1051	37.5600	39	0	0 
02017.713	-0.0156	-0.0044	0.9980	0.0000	0.0000	0.0000	1.2469	0.0659	177.1051	37.5600	39	0	0 
02017.723	-0.0156	-0.0044	0.9980	0.0000	0.0000	0.0000	1.2469	0.0604	177.1051	37.5800	40	0	0 
02017.723	-0.0156	-0.0044	0.9980	0.0000	0.0000	0.0000	1.2415	0.0604	177.1106	37.5800	41	0	0 
02017.734	-0.0156	-0.0044	0.9980	0.0000	0.0000	0.0000	1.2415	0.0549	177.1106	37.6500	41	0	0 
02017.739	-0.0156	-0.0044	0.9980	0.0000	0.0000	0.0000	1.2360	0.0494	177.1106	37.6500	41	0	0 
02017.739	-0.0156	-0.0044	0.9980	0.0000	0.0000	0.0000	1.2305	0.0494	177.1161	37.5400	41	0	0 
02017.741	-0.0156	-0.0044	0.9978	0.0000	0.0000	0.0000	1.2305	0.0439	177.1161	37.5400	40	0	0 
02017.758	-0.0156	-0.0044	0.9978	0.0000	0.0000	0.0000	1.2250	0.0385	177.1161	37.6400	40	0	0 
02017.758	-0.0156	-0.0044	0.9978	0.0000	0.0000	0.0000	1.2250	0.0330	177.1216	37.6400	40	0	0 
02017.763	-0.0156	-0.0044	0.9978	0.0000	0.0000	0.0000	1.2195	0.0330	177.1216	37.5100	39	0	0 
02017.769	-0.0156	-0.0044	0.9978	0.0000	0.0000	0.0000	1.2195	0.0275	177.1216	37.5100	40	0	0 
02017.772	-0.0156	-0.0044	0.9978	0.0000	0.0000	0.0000	1.2140	0.0220	177.1271	37.5100	41	0	0 
02017.772	-0.0156	-0.0044	0.9978	0.0000	0.0000	0.0000	1.2140	0.0165	177.1271	37.6300	41	0	0 
02017.802	-0.0156	-0.0044	0.9978	0.0000	0.0000	0.0000	1.2085	0.0165	177.1326	37.6300	41	0	0 
02017.815	-0.0156	-0.0044	0.9978	0.0000	0.0000	0.0000	1.2085	0.0110	177.1326	37.5900	41	0	0 
02017.816	-0.0156	-0.0044	0.9978	0.0000	0.0000	0.0000	1.2030	0.0055	177.1326	37.5900	41	0	0 
02017.818	-0.0156	-0.0044	0.9978	0.0000	0.0000	0.0000	1.2030	0.0055	177.1381	37.5200	42	0	0 
02017.820	-0.0156	-0.0044	0.9978	0.0000	0.0000	0.0000	1.1975	0.0000	177.1381	37.5200	43	0	0 
02017.820	-0.0156	-0.0044	0.9978	0.0000	0.0000	0.0000	1.1975	0.0000	177.1381	37.6000	43	0	0 
02017.823	-0.0156	-0.0044	0.9978	0.0000	0.0000	0.0000	1.1920	-0.0055	177.1436	37.6000	43	0	0 
02017.827	-0.0156	-0.0044	0.9978	0.0000	0.0000	0.0000	1.1920	-0.0055	177.1436	37.7100	42	0	0 
02017.827	-0.0156	-0.0044	0.9978	0.0000	0.0000	0.0000	1.1865	-0.0110	177.1436	37.7100	42	0	0 
02017.829	-0.0159	-0.0046	0.9980	0.0000	0.0000	0.0000	1.1865	-0.0165	177.1490	37.5000	42	0	0 
02017.831	-0.0159	-0.0046	0.9980	0.0000	0.0000	0.0000	1.1810	-0.0165	177.1490	37.5000	42	0	0 
02017.831	-0.0159	-0.0046	0.9980	0.0000	0.0000	0.0000	1.1810	-0.0220	177.1490	37.6000	43	0	0 
02017.840	-0.0159	-0.0046	0.9980	0.0000	0.0000	0.0000	1.1755	-0.0275	177.1545	37.6000	43	0	0 
02017.848	-0.0159	-0.0046	0.9980	0.0000	0.0000	0.0000	1.1755	-0.0330	177.1545	37.6500	44	0	0 
02017.856	-0.0159	-0.0046	0.9980	0.0000	0.0000	0.0000	1.1700	-0.0330	177.1545	37.6500	44	0	0 
02017.856	-0.0159	-0.0046	0.9980	0.0000	0.0000	0.0000	1.1700	-0.0385	177.1600	37.6500	44	0	0 
02017.868	-0.0159	-0.0046	0.9980	0.0000	0.0000	0.0000	1.1646	-0.0439	177.1600	37.5900	43	0	0 
02017.873	-0.0159	-0.0044	0.9983	0.0000	0.0000	0.0000	1.1646	-0.0439	177.1600	37.5900	44	0	0 
02017.873	-0.0159	-0.0044	0.9983	0.0000	0.0000	0.0000	1.1591	-0.0494	177.1655	37.6200	45	0	0 
02017.878	-0.0159	-0.0044	0.9983	0.0000	0.0000	0.0000	1.1591	-0.0549	177.1655	37.6200	44	0	0 
02017.883	-0.0159	-0.0044	0.9983	0.0000	0.0000	0.0000	1.1536	-0.0549	177.1655	37.6100	44	0	0 
02017.884	-0.0159	-0.0044	0.9983	0.0000	0.0000	0.0000	1.1536	-0.0604	177.1710	37.6100	44	0	0 
02017.889	-0.0159	-0.0044	0.9983	0.0000	0.0000	0.0000	1.1481	-0.0659	177.1710	37.5600	44	0	0 
02017.898	-0.0159	-0.0044	0.9983	0.0000	0.0000	0.0000	1.1481	-0.0659	177.1710	37.5600	44	0	0 
02017.898	-0.0159	-0.0044	0.9983	0.0000	0.0000	0.0000	1.1426	-0.0714	177.1765	37.5900	44	0	0 
02017.902	-0.0156	-0.0044	0.9985	0.0000	0.0000	0.0000	1.1426	-0.0769	177.1765	37.5900	44	0	0 
02017.933	-0.0156	-0.0044	0.9985	0.0000	0.0000	0.0000	1.1371	-0.0769	177.1765	37.5800	43	0	0 
02017.933	-0.0156	-0.0044	0.9985	0.0000	0.0000	0.0000	1.1371	-0.0824	177.1820	37.5800	43	0	0 
02017.935	-0.0156	-0.0044	0.9985	0.0000	0.0000	0.0000	1.1316	-0.0879	177.1820	37.5600	42	0	0 
02017.935	-0.0156	-0.0044	0.9985	0.0000	0.0000	0.0000	1.1316	-0.0879	177.1820	37.5600	42	0	0 
02017.935	-0.0156	-0.0044	0.9985	0.0000	0.0000	0.0000	1.1261	-0.0934	177.1820	37.6000	42	0	0 
02017.935	-0.0156	-0.0044	0.9985	0.0000	0.0000	0.0000	1.1261	-0.0989	177.1875	37.6000	42	0	0 
02017.943	-0.0156	-0.0044	0.9988	0.0000	0.0000	0.0000	1.1206	-0.0989	177.1875	37.6000	41	0	0 
02017.946	-0.0156	-0.0044	0.9988	0.0000	0.0000	0.0000	1.1206	-0.1044	177.1875	37.5800	41	0	0 
02017.946	-0.0156	-0.0044	0.9988	0.0000	0.0000	0.0000	1.1206	-0.1099	177.1930	37.5800	41	0	0 
02017.960	-0.0156	-0.0044	0.9988	0.0000	0.0000	0.0000	1.1151	-0.1099	177.1930	37.6200	41	0	0 
02017.962	-0.0156	-0.0044	0.9988	0.0000	0.0000	0.0000	1.1151	-0.1154	177.1930	37.6200	42	0	0 
02017.962	-0.0156	-0.0044	0.9988	0.0000	0.0000	0.0000	1.1096	-0.1208	177.1985	37.5600	42	0	0 
02017.972	-0.0156	-0.0044	0.9988	0.0000	0.0000	0.0000	1.1096	-0.1208	177.1985	37.5600	42	0	0 
02017.977	-0.0156	-0.0044	0.9988	0.0000	0.0000	0.0000	1.1041	-0.1263	177.1985	37.6100	42	0	0 
02017.977	-0.0154	-0.0044	0.9993	0.0000	0.0000	0.0000	1.1041	-0.1263	177.2040	37.6100	41	0	0 
02017.985	-0.0154	-0.0044	0.9993	0.0000	0.0000	0.0000	1.0986	-0.1318	177.2040	37.5800	40	0	0 
02017.991	-0.0154	-0.0044	0.9993	0.0000	0.0000	0.0000	1.0986	-0.1373	177.2040	37.5800	40	0	0 
02017.991	-0.0154	-0.0044	0.9993	0.0000	0.0000	0.0000	1.0931	-0.1373	177.2095	37.6100	40	0	0 
02017.997	-0.0154	-0.0044	0.9993	0.0000	0.0000	0.0000	1.0931	-0.1428	177.2095	37.6100	41	0	0 
02018.007	-0.0154	-0.0044	0.9993	0.0000	0.0000	0.0000	1.0876	-0.1483	177.2095	37.6000	41	0	0 
02018.014	-0.0154	-0.0044	0.9993	0.0000	0.0000	0.0000	1.0876	-0.1483	177.2095	37.6000	41	0	0 
02018.014	-0.0154	-0.0044	0.9993	0.0000	0.0000	0.0000	1.0876	-0.1538	177.2150	37.5500	40	0	0 
02018.020	-0.0154	-0.0042	0.9993	0.0000	0.0000	0.0000	1.0822	-0.1593	177.2150	37.5500	41	0	0 
02018.027	-0.0154	-0.0042	0.9993	0.0000	0.0000	0.0000	1.0822	-0.1593	177.2150	37.5500	41	0	0 
02018.027	-0.0154	-0.0042	0.9993	0.0000	0.0000	0.0000	1.0767	-0.1648	177.2205	37.5400	41	0	0 
02018.036	-0.0154	-0.0042	0.9993	0.0000	0.0000	0.0000	1.0767	-0.1648	177.2205	37.5400	41	0	0 
02018.045	-0.0154	-0.0042	0.9993	0.0000	0.0000	0.0000	1.0712	-0.1703	177.2205	37.5900	41	0	0 
02018.045	-0.0154	-0.0042	0.9993	0.0000	0.0000	0.0000	1.0712	-0.1758	177.2260	37.5900	41	0	0 
02018.048	-0.0154	-0.0042	0.9993	0.0000	0.0000	0.0000	1.0712	-0.1758	177.2260	37.5200	41	0	0 
02018.058	-0.0154	-0.0042	0.9993	0.0000	0.0000	0.0000	1.0657	-0.1813	177.2260	37.5200	42	0	0 
02018.058	-0.0154	-0.0042	0.9993	0.0000	0.0000	0.0000	1.0657	-0.1868	177.2260	37.5600	42	0	0 
02018.065	-0.0154	-0.0042	0.9993	0.0000	0.0000	0.0000	1.0602	-0.1868	177.2314	37.5600	41	0	0 
02018.073	-0.0154	-0.0042	0.9993	0.0000	0.0000	0.0000	1.0602	-0.1923	177.2314	37.5600	41	0	0 
02018.073	-0.0154	-0.0042	0.9993	0.0000	0.0000	0.0000	1.0547	-0.1923	177.2314	37.5600	42	0	0 
02018.080	-0.0154	-0.0042	0.9993	0.0000	0.0000	0.0000	1.0547	-0.1978	177.2369	37.6200	42	0	0 
02018.109	-0.0154	-0.0042	0.9993	0.0000	0.0000	0.0000	1.0547	-0.2032	177.2369	37.6200	42	0	0 
02018.111	-0.0154	-0.0042	0.9993	0.0000	0.0000	0.0000	1.0492	-0.2032	177.2369	37.5300	42	0	0 
02018.111	-0.0154	-0.0042	0.9993	0.0000	0.0000	0.0000	1.0492	-0.2087	177.2369	37.5300	42	0	0 
02018.111	-0.0151	-0.0042	0.9990	0.0000	0.0000	0.0000	1.0437	-0.2087	177.2424	37.5300	42	0	0 
02018.111	-0.0151	-0.0042	0.9990	0.0000	0.0000	0.0000	1.0437	-0.2142	177.2424	37.6000	41	0	0 
02018.111	-0.0151	-0.0042	0.9990	0.0000	0.0000	0.0000	1.0382	-0.2197	177.2424	37.6000	41	0	0 
02018.122	-0.0151	-0.0042	0.9990	0.0000	0.0000	0.0000	1.0382	-0.2197	177.2479	37.5400	42	0	0 
02018.124	-0.0151	-0.0042	0.9990	0.0000	0.0000	0.0000	1.0382	-0.2252	177.2479	37.5400	41	0	0 
02018.124	-0.0151	-0.0042	0.9990	0.0000	0.0000	0.0000	1.0327	-0.2307	177.2479	37.5200	41	0	0 
02018.132	-0.0151	-0.0042	0.9990	0.0000	0.0000	0.0000	1.0327	-0.2307	177.2479	37.5200	42	0	0 
02018.142	-0.0151	-0.0042	0.9990	0.0000	0.0000	0.0000	1.0272	-0.2362	177.2534	37.5900	42	0	0 
02018.142	-0.0154	-0.0042	0.9988	0.0000	0.0000	0.0000	1.0272	-0.2362	177.2534	37.5900	42	0	0 
02018.144	-0.0154	-0.0042	0.9988	0.0000	0.0000	0.0000	1.0272	-0.2417	177.2534	37.6000	42	0	0 
02018.159	-0.0154	-0.0042	0.9988	0.0000	0.0000	0.0000	1.0217	-0.2417	177.2589	37.6000	43	0	0 
02018.159	-0.0154	-0.0042	0.9988	0.0000	0.0000	0.0000	1.0217	-0.2472	177.2589	37.5900	43	0	0 
02018.164	-0.0154	-0.0042	0.9988	0.0000	0.0000	0.0000	1.0162	-0.2527	177.2589	37.5900	43	0	0 
02018.169	-0.0154	-0.0042	0.9988	0.0000	0.0000	0.0000	1.0162	-0.2527	177.2589	37.5600	42	0	0 
02018.173	-0.0154	-0.0042	0.9988	0.0000	0.0000	0.0000	1.0162	-0.2582	177.2644	37.5600	42	0	0 
02018.173	-0.0154	-0.0042	0.9988	0.0000	0.0000	0.0000	1.0107	-0.2582	177.2644	37.5800	42	0	0 
02018.187	-0.0156	-0.0044	0.9988	0.0000	0.0000	0.0000	1.0107	-0.2637	177.2644	37.5800	41	0	0 
02018.189	-0.0156	-0.0044	0.9988	0.0000	0.0000	0.0000	1.0052	-0.2692	177.2644	37.5800	41	0	0 
02018.189	-0.0156	-0.0044	0.9988	0.0000	0.0000	0.0000	1.0052	-0.2692	177.2699	37.5500	41	0	0 
02018.195	-0.0156	-0.0044	0.9988	0.0000	0.0000	0.0000	0.9998	-0.2747	177.2699	37.5500	41	0	0 
02018.205	-0.0156	-0.0044	0.9988	0.0000	0.0000	0.0000	0.9998	-0.2747	177.2699	37.5900	41	0	0 
02018.206	-0.0156	-0.0044	0.9988	0.0000	0.0000	0.0000	0.9998	-0.2802	177.2754	37.5900	40	0	0 
02018.208	-0.0156	-0.0044	0.9988	0.0000	0.0000	0.0000	0.9943	-0.2802	177.2754	37.6100	40	0	0 
02018.222	-0.0156	-0.0044	0.9988	0.0000	0.0000	0.0000	0.9943	-0.2856	177.2754	37.6100	40	0	0 
02018.222	-0.0156	-0.0044	0.9988	0.0000	0.0000	0.0000	0.9888	-0.2856	177.2754	37.5000	40	0	0 
02018.224	-0.0156	-0.0044	0.9988	0.0000	0.0000	0.0000	0.9888	-0.2911	177.2809	37.5000	41	0	0 
02018.239	-0.0156	-0.0044	0.9988	0.0000	0.0000	0.0000	0.9888	-0.2966	177.2809	37.5900	42	0	0 
02018.239	-0.0156	-0.0044	0.9988	0.0000	0.0000	0.0000	0.9833	-0.2966	177.2809	37.5900	42	0	0 
02018.242	-0.0156	-0.0044	0.9988	0.0000	0.0000	0.0000	0.9833	-0.3021	177.2809	37.5900	42	0	0 
02018.248	-0.0156	-0.0044	0.9988	0.0000	0.0000	0.0000	0.9833	-0.3021	177.2864	37.5900	41	0	0 
02018.254	-0.0156	-0.0044	0.9988	0.0000	0.0000	0.0000	0.9778	-0.3076	177.2864	37.5600	40	0	0 
02018.254	-0.0156	-0.0044	0.9988	0.0000	0.0000	0.0000	0.9778	-0.3076	177.2864	37.5600	40	0	0 
02018.265	-0.0159	-0.0044	0.9988	0.0000	0.0000	0.0000	0.9723	-0.3131	177.2864	37.5300	41	0	0 
02018.268	-0.0159	-0.0044	0.9988	0.0000	0.0000	0.0000	0.9723	-0.3131	177.2919	37.5300	41	0	0 
02018.268	-0.0159	-0.0044	0.9988	0.0000	0.0000	0.0000	0.9723	-0.3186	177.2919	37.5300	41	0	0 
02018.282	-0.0159	-0.0044	0.9988	0.0000	0.0000	0.0000	0.9668	-0.3186	177.2919	37.6000	41	0	0 
02018.284	-0.0159	-0.0044	0.9988	0.0000	0.0000	0.0000	0.9668	-0.3241	177.2974	37.6000	41	0	0 
02018.284	-0.0159	-0.0044	0.9988	0.0000	0.0000	0.0000	0.9613	-0.3241	177.2974	37.6000	41	0	0 
02018.290	-0.0159	-0.0044	0.9988	0.0000	0.0000	0.0000	0.9613	-0.3296	177.2974	37.6000	41	0	0 
02018.309	-0.0159	-0.0044	0.9988	0.0000	0.0000	0.0000	0.9613	-0.3296	177.2974	37.5600	42	0	0 
02018.309	-0.0159	-0.0044	0.9990	0.0000	0.0000	0.0000	0.9558	-0.3351	177.3029	37.5600	42	0	0 
02018.337	-0.0159	-0.0044	0.9990	0.0000	0.0000	0.0000	0.9558	-0.3406	177.3029	37.5900	41	0	0 
02018.338	-0.0159	-0.0044	0.9990	0.0000	0.0000	0.0000	0.9503	-0.3406	177.3029	37.5900	39	0	0 
02018.338	-0.0159	-0.0044	0.9990	0.0000	0.0000	0.0000	0.9503	-0.3461	177.3029	37.6000	40	0	0 
02018.338	-0.0159	-0.0044	0.9990	0.0000	0.0000	0.0000	0.9503	-0.3461	177.3083	37.6000	40	0	0 
02018.338	-0.0159	-0.0044	0.9990	0.0000	0.0000	0.0000	0.9448	-0.3516	177.3083	37.5600	40	0	0 
02018.338	-0.0159	-0.0044	0.9990	0.0000	0.0000	0.0000	0.9448	-0.3516	177.3083	37.5600	40	0	0 
02018.342	-0.0159	-0.0044	0.9990	0.0000	0.0000	0.0000	0.9448	-0.3571	177.3083	37.5700	41	0	0 
02018.345	-0.0159	-0.0044	0.9990	0.0000	0.0000	0.0000	0.9393	-0.3571	177.3138	37.5700	41	0	0 
02018.347	-0.0159	-0.0044	0.9990	0.0000	0.0000	0.0000	0.9393	-0.3625	177.3138	37.5400	41	0	0 
02018.347	-0.0159	-0.0044	0.9990	0.0000	0.0000	0.0000	0.9393	-0.3625	177.3138	37.5400	41	0	0 
02018.354	-0.0159	-0.0044	0.9990	0.0000	0.0000	0.0000	0.9338	-0.3680	177.3138	37.5400	42	0	0 
02018.364	-0.0159	-0.0044	0.9990	0.0000	0.0000	0.0000	0.9338	-0.3680	177.3193	37.5600	42	0	0 
02018.364	-0.0159	-0.0044	0.9990	0.0000	0.0000	0.0000	0.9283	-0.3735	177.3193	37.5600	42	0	0 
02018.367	-0.0159	-0.0044	0.9990	0.0000	0.0000	0.0000	0.9283	-0.3735	177.3193	37.5600	42	0	0 
02018.377	-0.0159	-0.0044	0.9990	0.0000	0.0000	0.0000	0.9283	-0.3790	177.3193	37.5600	42	0	0 
02018.377	-0.0159	-0.0042	0.9990	0.0000	0.0000	0.0000	0.9229	-0.3790	177.3248	37.5500	43	0	0 
02018.384	-0.0159	-0.0042	0.9990	0.0000	0.0000	0.0000	0.9229	-0.3845	177.3248	37.5500	43	0	0 
02018.396	-0.0159	-0.0042	0.9990	0.0000	0.0000	0.0000	0.9229	-0.3845	177.3248	37.5500	43	0	0 
02018.396	-0.0159	-0.0042	0.9990	0.0000	0.0000	0.0000	0.9174	-0.3900	177.3248	37.5500	42	0	0 
02018.399	-0.0159	-0.0042	0.9990	0.0000	0.0000	0.0000	0.9174	-0.3900	177.3303	37.5600	41	0	0 
02018.406	-0.0159	-0.0042	0.9990	0.0000	0.0000	0.0000	0.9174	-0.3955	177.3303	37.5600	40	0	0 
02018.406	-0.0159	-0.0042	0.9990	0.0000	0.0000	0.0000	0.9119	-0.3955	177.3303	37.6200	40	0	0 
02018.415	-0.0159	-0.0042	0.9990	0.0000	0.0000	0.0000	0.9119	-0.4010	177.3303	37.6200	40	0	0 
02018.440	-0.0159	-0.0042	0.9990	0.0000	0.0000	0.0000	0.9119	-0.4010	177.3303	37.5100	40	0	0 
02018.451	-0.0159	-0.0042	0.9990	0.0000	0.0000	0.0000	0.9064	-0.4065	177.3358	37.5100	39	0	0 
02018.451	-0.0159	-0.0042	0.9990	0.0000	0.0000	0.0000	0.9064	-0.4065	177.3358	37.6400	39	0	0 
02018.453	-0.0159	-0.0042	0.9990	0.0000	0.0000	0.0000	0.9009	-0.4065	177.3358	37.6400	39	0	0 
02018.456	-0.0159	-0.0042	0.9990	0.0000	0.0000	0.0000	0.9009	-0.4120	177.3358	37.6400	39	0	0 
02018.456	-0.0159	-0.0042	0.9990	0.0000	0.0000	0.0000	0.9009	-0.4120	177.3413	37.5700	39	0	0 
02018.458	-0.0159	-0.0042	0.9990	0.0000	0.0000	0.0000	0.8954	-0.4175	177.3413	37.5700	39	0	0 
02018.466	-0.0159	-0.0042	0.9990	0.0000	0.0000	0.0000	0.8954	-0.4175	177.3413	37.5300	39	0	0 
02018.466	-0.0159	-0.0042	0.9990	0.0000	0.0000	0.0000	0.8954	-0.4230	177.3413	37.5300	39	0	0 
02018.468	-0.0159	-0.0042	0.9990	0.0000	0.0000	0.0000	0.8899	-0.4230	177.3468	37.6400	39	0	0 
02018.471	-0.0159	-0.0042	0.9990	0.0000	0.0000	0.0000	0.8899	-0.4285	177.3468	37.6400	39	0	0 
02018.471	-0.0159	-0.0042	0.9990	0.0000	0.0000	0.0000	0.8899	-0.4285	177.3468	37.5700	38	0	0 
02018.483	-0.0159	-0.0042	0.9990	0.0000	0.0000	0.0000	0.8844	-0.4340	177.3468	37.5700	38	0	0 
02018.488	-0.0159	-0.0042	0.9990	0.0000	0.0000	0.0000	0.8844	-0.4340	177.3523	37.5700	39	0	0 
02018.488	-0.0159	-0.0042	0.9990	0.0000	0.0000	0.0000	0.8844	-0.4395	177.3523	37.5700	39	0	0 
02018.513	-0.0159	-0.0042	0.9990	0.0000	0.0000	0.0000	0.8789	-0.4395	177.3523	37.6600	39	0	0 
02018.515	-0.0159	-0.0042	0.9988	0.0000	0.0000	0.0000	0.8789	-0.4449	177.3523	37.6600	39	0	0 
02018.517	-0.0159	-0.0042	0.9988	0.0000	0.0000	0.0000	0.8789	-0.4449	177.3523	37.5500	38	0	0 
02018.517	-0.0159	-0.0042	0.9988	0.0000	0.0000	0.0000	0.8734	-0.4504	177.3578	37.5500	39	0	0 
02018.519	-0.0159	-0.0042	0.9988	0.0000	0.0000	0.0000	0.8734	-0.4504	177.3578	37.5500	40	0	0 
02018.525	-0.0159	-0.0042	0.9988	0.0000	0.0000	0.0000	0.8734	-0.4504	177.3578	37.6300	41	0	0 
02018.525	-0.0159	-0.0042	0.9988	0.0000	0.0000	0.0000	0.8679	-0.4559	177.3578	37.6300	42	0	0 
02018.533	-0.0159	-0.0042	0.9988	0.0000	0.0000	0.0000	0.8679	-0.4559	177.3633	37.5100	41	0	0 
02018.538	-0.0159	-0.0042	0.9988	0.0000	0.0000	0.0000	0.8679	-0.4614	177.3633	37.5100	41	0	0 
02018.538	-0.0159	-0.0039	0.9985	0.0000	0.0000	0.0000	0.8679	-0.4614	177.3633	37.5600	40	0	0 
02018.544	-0.0159	-0.0039	0.9985	0.0000	0.0000	0.0000	0.8624	-0.4669	177.3633	37.5600	39	0	0 
02018.555	-0.0159	-0.0039	0.9985	0.0000	0.0000	0.0000	0.8624	-0.4669	177.3633	37.6100	40	0	0 
02018.555	-0.0159	-0.0039	0.9985	0.0000	0.0000	0.0000	0.8624	-0.4724	177.3688	37.6100	40	0	0 
02018.557	-0.0159	-0.0039	0.9985	0.0000	0.0000	0.0000	0.8569	-0.4724	177.3688	37.5500	40	0	0 
02018.572	-0.0159	-0.0039	0.9985	0.0000	0.0000	0.0000	0.8569	-0.4724	177.3688	37.5500	41	0	0 
02018.575	-0.0159	-0.0039	0.9985	0.0000	0.0000	0.0000	0.8569	-0.4779	177.3688	37.6000	41	0	0 
02018.575	-0.0159	-0.0039	0.9985	0.0000	0.0000	0.0000	0.8514	-0.4779	177.3743	37.6000	41	0	0 
02018.585	-0.0159	-0.0039	0.9983	0.0000	0.0000	0.0000	0.8514	-0.4834	177.3743	37.5900	41	0	0 
02018.585	-0.0159	-0.0039	0.9983	0.0000	0.0000	0.0000	0.8514	-0.4834	177.3743	37.5900	41	0	0 
02018.590	-0.0159	-0.0039	0.9983	0.0000	0.0000	0.0000	0.8459	-0.4889	177.3743	37.5700	41	0	0 
02018.594	-0.0159	-0.0039	0.9983	0.0000	0.0000	0.0000	0.8459	-0.4889	177.3743	37.5700	41	0	0 
02018.604	-0.0159	-0.0039	0.9983	0.0000	0.0000	0.0000	0.8459	-0.4944	177.3798	37.5700	41	0	0 
02018.604	-0.0159	-0.0039	0.9983	0.0000	0.0000	0.0000	0.8459	-0.4944	177.3798	37.5600	41	0	0 
02018.607	-0.0159	-0.0039	0.9983	0.0000	0.0000	0.0000	0.8405	-0.4944	177.3798	37.5600	42	0	0 
02018.622	-0.0159	-0.0039	0.9983	0.0000	0.0000	0.0000	0.8405	-0.4999	177.3798	37.6400	43	0	0 
02018.622	-0.0159	-0.0037	0.9983	0.0000	0.0000	0.0000	0.8405	-0.4999	177.3798	37.6400	42	0	0 
02018.624	-0.0159	-0.0037	0.9983	0.0000	0.0000	0.0000	0.8350	-0.5054	177.3853	37.5600	42	0	0 
02018.635	-0.0159	-0.0037	0.9983	0.0000	0.0000	0.0000	0.8350	-0.5054	177.3853	37.5600	41	0	0 
02018.635	-0.0159	-0.0037	0.9983	0.0000	0.0000	0.0000	0.8350	-0.5109	177.3853	37.5600	41	0	0 
02018.638	-0.0159	-0.0037	0.9983	0.0000	0.0000	0.0000	0.8295	-0.5109	177.3853	37.5600	40	0	0 
02018.649	-0.0159	-0.0037	0.9983	0.0000	0.0000	0.0000	0.8295	-0.5109	177.3907	37.5700	40	0	0 
02018.649	-0.0159	-0.0037	0.9983	0.0000	0.0000	0.0000	0.8295	-0.5164	177.3907	37.5700	39	0	0 
02018.653	-0.0159	-0.0037	0.9983	0.0000	0.0000	0.0000	0.8295	-0.5164	177.3907	37.5800	40	0	0 
02018.663	-0.0159	-0.0039	0.9985	0.0000	0.0000	0.0000	0.8240	-0.5219	177.3907	37.5800	41	0	0 
02018.663	-0.0159	-0.0039	0.9985	0.0000	0.0000	0.0000	0.8240	-0.5219	177.3907	37.5800	41	0	0 
02018.668	-0.0159	-0.0039	0.9985	0.0000	0.0000	0.0000	0.8240	-0.5219	177.3962	37.5800	41	0	0 
02018.678	-0.0159	-0.0039	0.9985	0.0000	0.0000	0.0000	0.8185	-0.5273	177.3962	37.5200	42	0	0 
02018.685	-0.0159	-0.0039	0.9985	0.0000	0.0000	0.0000	0.8185	-0.5273	177.3962	37.5200	42	0	0 
02018.685	-0.0159	-0.0039	0.9985	0.0000	0.0000	0.0000	0.8185	-0.5328	177.3962	37.5200	43	0	0 
02018.687	-0.0159	-0.0039	0.9985	0.0000	0.0000	0.0000	0.8185	-0.5328	177.3962	37.6000	43	0	0 
02018.704	-0.0159	-0.0039	0.9985	0.0000	0.0000	0.0000	0.8130	-0.5383	177.4017	37.6000	42	0	0 
02018.704	-0.0156	-0.0039	0.9990	0.0000	0.0000	0.0000	0.8130	-0.5383	177.4017	37.5400	41	0	0 
02018.706	-0.0156	-0.0039	0.9990	0.0000	0.0000	0.0000	0.8130	-0.5383	177.4017	37.5400	41	0	0 
02018.710	-0.0156	-0.0039	0.9990	0.0000	0.0000	0.0000	0.8075	-0.5438	177.4017	37.4900	41	0	0 
02018.740	-0.0156	-0.0039	0.9990	0.0000	0.0000	0.0000	0.8075	-0.5438	177.4017	37.4900	41	0	0 
02018.740	-0.0156	-0.0039	0.9990	0.0000	0.0000	0.0000	0.8075	-0.5493	177.4072	37.6200	41	0	0 
02018.742	-0.0156	-0.0039	0.9990	0.0000	0.0000	0.0000	0.8075	-0.5493	177.4072	37.6200	42	0	0 
02018.746	-0.0156	-0.0039	0.9990	0.0000	0.0000	0.0000	0.8020	-0.5493	177.4072	37.5600	42	0	0 
02018.746	-0.0156	-0.0039	0.9990	0.0000	0.0000	0.0000	0.8020	-0.5548	177.4072	37.5600	42	0	0 
02018.748	-0.0156	-0.0039	0.9993	0.0000	0.0000	0.0000	0.8020	-0.5548	177.4072	37.5600	42	0	0 
02018.750	-0.0156	-0.0039	0.9993	0.0000	0.0000	0.0000	0.7965	-0.5603	177.4127	37.5600	42	0	0 
02018.750	-0.0156	-0.0039	0.9993	0.0000	0.0000	0.0000	0.7965	-0.5603	177.4127	37.5900	43	0	0 
02018.754	-0.0156	-0.0039	0.9993	0.0000	0.0000	0.0000	0.7965	-0.5603	177.4127	37.5900	43	0	0 
02018.768	-0.0156	-0.0039	0.9993	0.0000	0.0000	0.0000	0.7965	-0.5658	177.4127	37.6100	42	0	0 
02018.768	-0.0156	-0.0039	0.9993	0.0000	0.0000	0.0000	0.7910	-0.5658	177.4127	37.6100	43	0	0 
02018.773	-0.0156	-0.0039	0.9993	0.0000	0.0000	0.0000	0.7910	-0.5713	177.4182	37.6100	44	0	0 
02018.775	-0.0156	-0.0039	0.9993	0.0000	0.0000	0.0000	0.7910	-0.5713	177.4182	37.5500	44	0	0 
02018.775	-0.0156	-0.0042	0.9993	0.0000	0.0000	0.0000	0.7855	-0.5713	177.4182	37.5500	44	0	0 
02018.785	-0.0156	-0.0042	0.9993	0.0000	0.0000	0.0000	0.7855	-0.5768	177.4182	37.5800	43	0	0 
02018.791	-0.0156	-0.0042	0.9993	0.0000	0.0000	0.0000	0.7855	-0.5768	177.4182	37.5800	42	0	0 
02018.801	-0.0156	-0.0042	0.9993	0.0000	0.0000	0.0000	0.7855	-0.5823	177.4237	37.5500	43	0	0 
02018.801	-0.0156	-0.0042	0.9993	0.0000	0.0000	0.0000	0.7800	-0.5823	177.4237	37.5500	43	0	0 
02018.805	-0.0156	-0.0042	0.9993	0.0000	0.0000	0.0000	0.7800	-0.5823	177.4237	37.5500	43	0	0 
02018.815	-0.0156	-0.0042	0.9993	0.0000	0.0000	0.0000	0.7800	-0.5878	177.4237	37.5500	44	0	0 
02018.815	-0.0156	-0.0042	0.9993	0.0000	0.0000	0.0000	0.7800	-0.5878	177.4237	37.6600	44	0	0 
02018.822	-0.0156	-0.0042	0.9993	0.0000	0.0000	0.0000	0.7745	-0.5933	177.4237	37.6600	45	0	0 
02018.830	-0.0156	-0.0042	0.9993	0.0000	0.0000	0.0000	0.7745	-0.5933	177.4292	37.5200	44	0	0 
02018.830	-0.0156	-0.0042	0.9993	0.0000	0.0000	0.0000	0.7745	-0.5933	177.4292	37.5200	44	0	0 
02018.834	-0.0156	-0.0042	0.9993	0.0000	0.0000	0.0000	0.7690	-0.5988	177.4292	37.5400	44	0	0 
02018.844	-0.0156	-0.0042	0.9993	0.0000	0.0000	0.0000	0.7690	-0.5988	177.4292	37.5400	44	0	0 
02018.844	-0.0156	-0.0042	0.9993	0.0000	0.0000	0.0000	0.7690	-0.5988	177.4292	37.5400	44	0	0 
02018.848	-0.0156	-0.0042	0.9993	0.0000	0.0000	0.0000	0.7690	-0.6042	177.4347	37.6500	44	0	0 
02018.862	-0.0156	-0.0042	0.9993	0.0000	0.0000	0.0000	0.7635	-0.6042	177.4347	37.6500	44	0	0 
02018.862	-0.0156	-0.0042	0.9990	0.0000	0.0000	0.0000	0.7635	-0.6097	177.4347	37.6000	44	0	0 
02018.864	-0.0156	-0.0042	0.9990	0.0000	0.0000	0.0000	0.7635	-0.6097	177.4347	37.6000	43	0	0 
02018.875	-0.0156	-0.0042	0.9990	0.0000	0.0000	0.0000	0.7635	-0.6097	177.4347	37.5900	43	0	0 
02018.878	-0.0156	-0.0042	0.9990	0.0000	0.0000	0.0000	0.7581	-0.6152	177.4347	37.5900	43	0	0 
02018.878	-0.0156	-0.0042	0.9990	0.0000	0.0000	0.0000	0.7581	-0.6152	177.4402	37.5800	43	0	0 
02018.921	-0.0156	-0.0042	0.9990	0.0000	0.0000	0.0000	0.7581	-0.6207	177.4402	37.5800	43	0	0 
02018.921