Time	ax	ay	az	wx	wy	wz	AngleX	AngleY	AngleZ	T	hx	hy	hz 
02100.589	0.0532	-0.0183	0.9966	0.0000	0.0000	0.0000	-0.4724	-5.2844	177.7368	37.6900	43	0	0 
02100.591	0.0532	-0.0183	0.9966	0.0000	0.0000	0.0000	-0.4724	-5.2844	177.7368	37.6900	43	0	0 
02100.599	0.0532	-0.0183	0.9966	0.0000	0.0000	0.0000	-0.4724	-5.2844	177.7368	37.6500	42	0	0 
02100.599	0.0532	-0.0183	0.9966	0.0000	0.0000	0.0000	-0.4724	-5.2789	177.7368	37.6500	41	0	0 
02100.628	0.0532	-0.0183	0.9966	0.0000	0.0000	0.0000	-0.4724	-5.2789	177.7368	37.7300	40	0	0 
02100.630	0.0532	-0.0183	0.9966	0.0000	0.0000	0.0000	-0.4724	-5.2789	177.7368	37.7300	40	0	0 
02100.630	0.0532	-0.0183	0.9966	0.0000	0.0000	0.0000	-0.4779	-5.2789	177.7368	37.7300	40	0	0 
02100.630	0.0532	-0.0183	0.9966	0.0000	0.0000	0.0000	-0.4779	-5.2789	177.7368	37.6800	39	0	0 
02100.630	0.0544	-0.0161	0.9958	0.0000	0.0000	0.0000	-0.4779	-5.2789	177.7368	37.6800	38	0	0 
02100.654	0.0544	-0.0161	0.9958	0.0000	0.0000	0.0000	-0.4724	-5.2789	177.7368	37.6500	39	0	0 
02100.654	0.0544	-0.0161	0.9958	0.0000	0.0000	0.0000	-0.4724	-5.2789	177.7368	37.6500	39	0	0 
02100.663	0.0544	-0.0161	0.9958	0.0000	0.0000	0.0000	-0.4724	-5.2844	177.7368	37.6100	40	0	0 
02100.669	0.0544	-0.0161	0.9958	0.0000	0.0000	0.0000	-0.4724	-5.2844	177.7368	37.6100	40	0	0 
02100.669	0.0544	-0.0161	0.9958	0.0000	0.0000	0.0000	-0.4724	-5.2844	177.7368	37.6800	40	0	0 
02100.671	0.0544	-0.0161	0.9958	0.0000	0.0000	0.0000	-0.4724	-5.2844	177.7368	37.6800	40	0	0 
02100.674	0.0544	-0.0161	0.9958	0.0000	0.0000	0.0000	-0.4724	-5.2844	177.7368	37.6600	39	0	0 
02100.674	0.0532	-0.0164	0.9971	0.0000	0.0000	0.0000	-0.4724	-5.2844	177.7368	37.6600	38	0	0 
02100.677	0.0532	-0.0164	0.9971	0.0000	0.0000	0.0000	-0.4724	-5.2844	177.7368	37.6800	38	0	0 
02100.680	0.0532	-0.0164	0.9971	0.0000	0.0000	0.0000	-0.4724	-5.2844	177.7368	37.6800	38	0	0 
02100.680	0.0532	-0.0164	0.9971	0.0000	0.0000	0.0000	-0.4724	-5.2844	177.7368	37.6700	36	0	0 
02100.682	0.0532	-0.0164	0.9971	0.0000	0.0000	0.0000	-0.4724	-5.2844	177.7368	37.6700	35	0	0 
02100.698	0.0532	-0.0164	0.9971	0.0000	0.0000	0.0000	-0.4724	-5.2789	177.7368	37.6600	36	0	0 
02100.698	0.0532	-0.0164	0.9971	0.0000	0.0000	0.0000	-0.4724	-5.2789	177.7368	37.6600	36	0	0 
02100.704	0.0532	-0.0164	0.9971	0.0000	0.0000	0.0000	-0.4724	-5.2789	177.7368	37.6600	37	0	0 
02100.708	0.0547	-0.0161	0.9961	0.0000	0.0000	0.0000	-0.4724	-5.2789	177.7368	37.6200	38	0	0 
02100.714	0.0547	-0.0161	0.9961	0.0000	0.0000	0.0000	-0.4724	-5.2844	177.7368	37.6200	39	0	0 
02100.714	0.0547	-0.0161	0.9961	0.0000	0.0000	0.0000	-0.4724	-5.2844	177.7368	37.6900	39	0	0 
02100.723	0.0547	-0.0161	0.9961	0.0000	0.0000	0.0000	-0.4724	-5.2844	177.7368	37.6900	40	0	0 
02100.730	0.0547	-0.0161	0.9961	0.0000	0.0000	0.0000	-0.4724	-5.2844	177.7368	37.6600	40	0	0 
02100.730	0.0547	-0.0161	0.9961	0.0000	0.0000	0.0000	-0.4724	-5.2844	177.7368	37.6600	40	0	0 
02100.733	0.0547	-0.0161	0.9961	0.0000	0.0000	0.0000	-0.4724	-5.2844	177.7368	37.6600	41	0	0 
02100.746	0.0547	-0.0161	0.9961	0.0000	0.0000	0.0000	-0.4724	-5.2844	177.7368	37.6600	42	0	0 
02100.746	0.0544	-0.0149	0.9966	0.0000	0.0000	0.0000	-0.4724	-5.2844	177.7368	37.7400	42	0	0 
02100.750	0.0544	-0.0149	0.9966	0.0000	0.0000	0.0000	-0.4724	-5.2844	177.7368	37.7400	42	0	0 
02100.758	0.0544	-0.0149	0.9966	0.0000	0.0000	0.0000	-0.4724	-5.2844	177.7368	37.7400	42	0	0 
02100.758	0.0544	-0.0149	0.9966	0.0000	0.0000	0.0000	-0.4669	-5.2844	177.7368	37.7400	42	0	0 
02100.762	0.0544	-0.0149	0.9966	0.0000	0.0000	0.0000	-0.4669	-5.2844	177.7368	37.7000	42	0	0 
02100.773	0.0544	-0.0149	0.9966	0.0000	0.0000	0.0000	-0.4669	-5.2844	177.7368	37.7000	42	0	0 
02100.773	0.0544	-0.0149	0.9966	0.0000	0.0000	0.0000	-0.4669	-5.2844	177.7368	37.7000	42	0	0 
02100.777	0.0537	-0.0159	0.9968	0.0000	0.0000	0.0000	-0.4669	-5.2844	177.7368	37.7100	42	0	0 
02100.805	0.0537	-0.0159	0.9968	0.0000	0.0000	0.0000	-0.4669	-5.2844	177.7368	37.7100	42	0	0 
02100.808	0.0537	-0.0159	0.9968	0.0000	0.0000	0.0000	-0.4669	-5.2844	177.7368	37.6500	41	0	0 
02100.808	0.0537	-0.0159	0.9968	0.0000	0.0000	0.0000	-0.4669	-5.2844	177.7368	37.6500	41	0	0 
02100.808	0.0537	-0.0159	0.9968	0.0000	0.0000	0.0000	-0.4669	-5.2844	177.7368	37.7200	41	0	0 
02100.810	0.0537	-0.0159	0.9968	0.0000	0.0000	0.0000	-0.4669	-5.2844	177.7368	37.7200	41	0	0 
02100.810	0.0537	-0.0159	0.9968	0.0000	0.0000	0.0000	-0.4669	-5.2844	177.7368	37.6900	40	0	0 
02100.816	0.0537	-0.0159	0.9968	0.0000	0.0000	0.0000	-0.4669	-5.2844	177.7368	37.6900	41	0	0 
02100.823	0.0544	-0.0159	0.9963	0.0000	0.0000	0.0000	-0.4669	-5.2844	177.7368	37.6900	42	0	0 
02100.823	0.0544	-0.0159	0.9963	0.0000	0.0000	0.0000	-0.4669	-5.2844	177.7368	37.6900	42	0	0 
02100.855	0.0544	-0.0159	0.9963	0.0000	0.0000	0.0000	-0.4669	-5.2844	177.7368	37.6800	42	0	0 
02100.878	0.0544	-0.0159	0.9963	0.0000	0.0000	0.0000	-0.4669	-5.2844	177.7368	37.6800	42	0	0 
02100.878	0.0544	-0.0159	0.9963	0.0000	0.0000	0.0000	-0.4669	-5.2844	177.7368	37.6500	42	0	0 
02100.884	0.0544	-0.0159	0.9963	0.0000	0.0000	0.0000	-0.4669	-5.2844	177.7368	37.6500	42	0	0 
02100.889	0.0544	-0.0159	0.9963	0.0000	0.0000	0.0000	-0.4669	-5.2844	177.7368	37.7400	43	0	0 
02100.889	0.0544	-0.0159	0.9963	0.0000	0.0000	0.0000	-0.4669	-5.2844	177.7368	37.7400	43	0	0 
02100.891	0.0537	-0.0161	0.9963	0.0000	0.0000	0.0000	-0.4669	-5.2844	177.7368	37.7400	44	0	0 
02100.893	0.0537	-0.0161	0.9963	0.0000	0.0000	0.0000	-0.4669	-5.2844	177.7368	37.7300	44	0	0 
02100.893	0.0537	-0.0161	0.9963	0.0000	0.0000	0.0000	-0.4669	-5.2844	177.7368	37.7300	43	0	0 
02100.895	0.0537	-0.0161	0.9963	0.0000	0.0000	0.0000	-0.4614	-5.2844	177.7368	37.7100	43	0	0 
02100.897	0.0537	-0.0161	0.9963	0.0000	0.0000	0.0000	-0.4614	-5.2844	177.7368	37.7100	42	0	0 
02100.899	0.0537	-0.0161	0.9963	0.0000	0.0000	0.0000	-0.4614	-5.2844	177.7368	37.6500	42	0	0 
02100.899	0.0537	-0.0161	0.9963	0.0000	0.0000	0.0000	-0.4614	-5.2844	177.7368	37.6500	41	0	0 
02100.901	0.0537	-0.0161	0.9963	0.0000	0.0000	0.0000	-0.4614	-5.2844	177.7368	37.7000	41	0	0 
02100.906	0.0540	-0.0161	0.9963	0.0000	0.0000	0.0000	-0.4614	-5.2844	177.7368	37.7000	41	0	0 
02100.906	0.0540	-0.0161	0.9963	0.0000	0.0000	0.0000	-0.4614	-5.2844	177.7368	37.6900	40	0	0 
02100.914	0.0540	-0.0161	0.9963	0.0000	0.0000	0.0000	-0.4614	-5.2844	177.7368	37.6900	40	0	0 
02100.917	0.0540	-0.0161	0.9963	0.0000	0.0000	0.0000	-0.4614	-5.2844	177.7368	37.7100	39	0	0 
02100.917	0.0540	-0.0161	0.9963	0.0000	0.0000	0.0000	-0.4614	-5.2844	177.7368	37.7100	39	0	0 
02100.928	0.0540	-0.0161	0.9963	0.0000	0.0000	0.0000	-0.4614	-5.2844	177.7368	37.6300	39	0	0 
02100.934	0.0540	-0.0161	0.9963	0.0000	0.0000	0.0000	-0.4614	-5.2844	177.7368	37.6300	40	0	0 
02100.934	0.0540	-0.0161	0.9963	0.0000	0.0000	0.0000	-0.4614	-5.2844	177.7368	37.6700	40	0	0 
02100.938	0.0542	-0.0164	0.9961	0.0000	0.0000	0.0000	-0.4614	-5.2844	177.7368	37.6700	39	0	0 
02100.949	0.0542	-0.0164	0.9961	0.0000	0.0000	0.0000	-0.4614	-5.2844	177.7368	37.6700	38	0	0 
02100.949	0.0542	-0.0164	0.9961	0.0000	0.0000	0.0000	-0.4614	-5.2844	177.7368	37.6300	39	0	0 
02100.953	0.0542	-0.0164	0.9961	0.0000	0.0000	0.0000	-0.4614	-5.2844	177.7368	37.6300	39	0	0 
02100.965	0.0542	-0.0164	0.9961	0.0000	0.0000	0.0000	-0.4614	-5.2844	177.7368	37.6500	40	0	0 
02100.968	0.0542	-0.0164	0.9961	0.0000	0.0000	0.0000	-0.4614	-5.2844	177.7368	37.6500	40	0	0 
02100.968	0.0542	-0.0164	0.9961	0.0000	0.0000	0.0000	-0.4614	-5.2844	177.7368	37.6800	40	0	0 
02100.981	0.0542	-0.0164	0.9961	0.0000	0.0000	0.0000	-0.4614	-5.2844	177.7368	37.6800	41	0	0 
02100.983	0.0544	-0.0164	0.9958	0.0000	0.0000	0.0000	-0.4614	-5.2844	177.7368	37.6900	41	0	0 
02100.983	0.0544	-0.0164	0.9958	0.0000	0.0000	0.0000	-0.4614	-5.2844	177.7368	37.6900	41	0	0 
02100.995	0.0544	-0.0164	0.9958	0.0000	0.0000	0.0000	-0.4614	-5.2844	177.7368	37.6100	41	0	0 
02100.998	0.0544	-0.0164	0.9958	0.0000	0.0000	0.0000	-0.4614	-5.2844	177.7368	37.6100	41	0	0 
02100.998	0.0544	-0.0164	0.9958	0.0000	0.0000	0.0000	-0.4614	-5.2844	177.7368	37.6800	42	0	0 
02101.008	0.0544	-0.0164	0.9958	0.0000	0.0000	0.0000	-0.4614	-5.2844	177.7368	37.6800	44	0	0 
02101.035	0.0544	-0.0164	0.9958	0.0000	0.0000	0.0000	-0.4614	-5.2844	177.7368	37.6900	44	0	0 
02101.035	0.0544	-0.0164	0.9958	0.0000	0.0000	0.0000	-0.4614	-5.2844	177.7368	37.6900	44	0	0 
02101.037	0.0540	-0.0164	0.9963	0.0000	0.0000	0.0000	-0.4614	-5.2844	177.7368	37.6400	44	0	0 
02101.037	0.0540	-0.0164	0.9963	0.0000	0.0000	0.0000	-0.4614	-5.2844	177.7368	37.6400	44	0	0 
02101.037	0.0540	-0.0164	0.9963	0.0000	0.0000	0.0000	-0.4614	-5.2844	177.7368	37.6400	43	0	0 
02101.037	0.0540	-0.0164	0.9963	0.0000	0.0000	0.0000	-0.4614	-5.2844	177.7368	37.6800	43	0	0 
02101.044	0.0540	-0.0164	0.9963	0.0000	0.0000	0.0000	-0.4614	-5.2844	177.7368	37.6800	42	0	0 
02101.049	0.0540	-0.0164	0.9963	0.0000	0.0000	0.0000	-0.4614	-5.2844	177.7368	37.6800	41	0	0 
02101.049	0.0540	-0.0164	0.9963	0.0000	0.0000	0.0000	-0.4614	-5.2844	177.7368	37.6800	41	0	0 
02101.053	0.0540	-0.0164	0.9963	0.0000	0.0000	0.0000	-0.4614	-5.2844	177.7368	37.7400	40	0	0 
02101.062	0.0537	-0.0171	0.9963	0.0000	0.0000	0.0000	-0.4614	-5.2844	177.7368	37.7400	40	0	0 
02101.062	0.0537	-0.0171	0.9963	0.0000	0.0000	0.0000	-0.4614	-5.2844	177.7368	37.6900	40	0	0 
02101.071	0.0537	-0.0171	0.9963	0.0000	0.0000	0.0000	-0.4614	-5.2844	177.7368	37.6900	41	0	0 
02101.078	0.0537	-0.0171	0.9963	0.0000	0.0000	0.0000	-0.4614	-5.2844	177.7368	37.7200	41	0	0 
02101.078	0.0537	-0.0171	0.9963	0.0000	0.0000	0.0000	-0.4614	-5.2844	177.7368	37.7200	41	0	0 
02101.085	0.0537	-0.0171	0.9963	0.0000	0.0000	0.0000	-0.4614	-5.2844	177.7368	37.7000	40	0	0 
02101.093	0.0537	-0.0171	0.9963	0.0000	0.0000	0.0000	-0.4614	-5.2844	177.7368	37.7000	40	0	0 
02101.093	0.0537	-0.0171	0.9963	0.0000	0.0000	0.0000	-0.4614	-5.2844	177.7368	37.6800	40	0	0 
02101.099	0.0537	-0.0171	0.9963	0.0000	0.0000	0.0000	-0.4614	-5.2844	177.7368	37.6800	41	0	0 
02101.108	0.0537	-0.0171	0.9963	0.0000	0.0000	0.0000	-0.4614	-5.2844	177.7368	37.6800	41	0	0 
02101.117	0.0537	-0.0171	0.9963	0.0000	0.0000	0.0000	-0.4614	-5.2844	177.7368	37.6900	40	0	0 
02101.117	0.0537	-0.0171	0.9963	0.0000	0.0000	0.0000	-0.4614	-5.2844	177.7368	37.6900	39	0	0 
02101.120	0.0537	-0.0171	0.9963	0.0000	0.0000	0.0000	-0.4614	-5.2844	177.7368	37.7000	40	0	0 
02101.131	0.0537	-0.0171	0.9963	0.0000	0.0000	0.0000	-0.4614	-5.2844	177.7368	37.7000	42	0	0 
02101.131	0.0537	-0.0171	0.9963	0.0000	0.0000	0.0000	-0.4614	-5.2844	177.7368	37.7000	41	0	0 
02101.137	0.0537	-0.0171	0.9963	0.0000	0.0000	0.0000	-0.4614	-5.2844	177.7368	37.7000	41	0	0 
02101.143	0.0537	-0.0168	0.9966	0.0000	0.0000	0.0000	-0.4614	-5.2844	177.7368	37.6200	41	0	0 
02101.143	0.0537	-0.0168	0.9966	0.0000	0.0000	0.0000	-0.4614	-5.2844	177.7368	37.6200	42	0	0 
02101.151	0.0537	-0.0168	0.9966	0.0000	0.0000	0.0000	-0.4614	-5.2844	177.7368	37.6000	41	0	0 
02101.160	0.0537	-0.0168	0.9966	0.0000	0.0000	0.0000	-0.4614	-5.2844	177.7368	37.6000	41	0	0 
02101.160	0.0537	-0.0168	0.9966	0.0000	0.0000	0.0000	-0.4614	-5.2844	177.7368	37.7400	41	0	0 
02101.166	0.0537	-0.0168	0.9966	0.0000	0.0000	0.0000	-0.4614	-5.2844	177.7368	37.7400	41	0	0 
02101.172	0.0537	-0.0168	0.9966	0.0000	0.0000	0.0000	-0.4614	-5.2844	177.7368	37.6300	40	0	0 
02101.172	0.0537	-0.0168	0.9966	0.0000	0.0000	0.0000	-0.4614	-5.2844	177.7368	37.6300	41	0	0 
02101.180	0.0535	-0.0171	0.9966	0.0000	0.0000	0.0000	-0.4614	-5.2844	177.7368	37.6100	43	0	0 
02101.214	0.0535	-0.0171	0.9966	0.0000	0.0000	0.0000	-0.4614	-5.2844	177.7368	37.6100	42	0	0 
02101.216	0.0535	-0.0171	0.9966	0.0000	0.0000	0.0000	-0.4614	-5.2844	177.7368	37.6100	42	0	0 
02101.216	0.0535	-0.0171	0.9966	0.0000	0.0000	0.0000	-0.4614	-5.2844	177.7368	37.6800	42	0	0 
02101.216	0.0535	-0.0171	0.9966	0.0000	0.0000	0.0000	-0.4614	-5.2844	177.7368	37.6800	42	0	0 
02101.218	0.0535	-0.0171	0.9966	0.0000	0.0000	0.0000	-0.4614	-5.2844	177.7368	37.7200	43	0	0 
02101.218	0.0535	-0.0171	0.9966	0.0000	0.0000	0.0000	-0.4614	-5.2844	177.7368	37.7200	43	0	0 
02101.220	0.0535	-0.0171	0.9966	0.0000	0.0000	0.0000	-0.4614	-5.2844	177.7368	37.7000	43	0	0 
02101.222	0.0532	-0.0168	0.9968	0.0000	0.0000	0.0000	-0.4614	-5.2844	177.7368	37.7000	43	0	0 
02101.222	0.0532	-0.0168	0.9968	0.0000	0.0000	0.0000	-0.4614	-5.2844	177.7368	37.6700	44	0	0 
02101.232	0.0532	-0.0168	0.9968	0.0000	0.0000	0.0000	-0.4614	-5.2844	177.7368	37.6700	44	0	0 
02101.236	0.0532	-0.0168	0.9968	0.0000	0.0000	0.0000	-0.4614	-5.2844	177.7368	37.6800	45	0	0 
02101.236	0.0532	-0.0168	0.9968	0.0000	0.0000	0.0000	-0.4614	-5.2844	177.7368	37.6800	45	0	0 
02101.247	0.0532	-0.0168	0.9968	0.0000	0.0000	0.0000	-0.4614	-5.2844	177.7368	37.6500	44	0	0 
02101.254	0.0532	-0.0168	0.9968	0.0000	0.0000	0.0000	-0.4614	-5.2844	177.7368	37.6500	43	0	0 
02101.254	0.0532	-0.0168	0.9968	0.0000	0.0000	0.0000	-0.4614	-5.2844	177.7368	37.7500	44	0	0 
02101.264	0.0530	-0.0173	0.9973	0.0000	0.0000	0.0000	-0.4614	-5.2844	177.7368	37.7500	44	0	0 
02101.301	0.0530	-0.0173	0.9973	0.0000	0.0000	0.0000	-0.4614	-5.2844	177.7368	37.7500	44	0	0 
02101.304	0.0530	-0.0173	0.9973	0.0000	0.0000	0.0000	-0.4614	-5.2844	177.7368	37.7500	43	0	0 
02101.304	0.0530	-0.0173	0.9973	0.0000	0.0000	0.0000	-0.4614	-5.2844	177.7368	37.7500	44	0	0 
02101.306	0.0530	-0.0173	0.9973	0.0000	0.0000	0.0000	-0.4614	-5.2844	177.7368	37.7000	45	0	0 
02101.309	0.0530	-0.0173	0.9973	0.0000	0.0000	0.0000	-0.4614	-5.2844	177.7368	37.7000	45	0	0 
02101.309	0.0530	-0.0173	0.9973	0.0000	0.0000	0.0000	-0.4614	-5.2844	177.7368	37.6500	46	0	0 
02101.311	0.0530	-0.0173	0.9973	0.0000	0.0000	0.0000	-0.4614	-5.2844	177.7368	37.6500	46	0	0 
02101.316	0.0535	-0.0166	0.9973	0.0000	0.0000	0.0000	-0.4614	-5.2844	177.7368	37.6900	47	0	0 
02101.316	0.0535	-0.0166	0.9973	0.0000	0.0000	0.0000	-0.4614	-5.2844	177.7368	37.6900	46	0	0 
02101.318	0.0535	-0.0166	0.9973	0.0000	0.0000	0.0000	-0.4614	-5.2844	177.7368	37.6600	45	0	0 
02101.320	0.0535	-0.0166	0.9973	0.0000	0.0000	0.0000	-0.4614	-5.2844	177.7368	37.6600	45	0	0 
02101.320	0.0535	-0.0166	0.9973	0.0000	0.0000	0.0000	-0.4614	-5.2844	177.7368	37.6300	45	0	0 
02101.326	0.0535	-0.0166	0.9973	0.0000	0.0000	0.0000	-0.4614	-5.2844	177.7368	37.6300	45	0	0 
02101.332	0.0535	-0.0166	0.9973	0.0000	0.0000	0.0000	-0.4614	-5.2844	177.7368	37.6700	45	0	0 
02101.341	0.0535	-0.0166	0.9973	0.0000	0.0000	0.0000	-0.4614	-5.2844	177.7368	37.6700	45	0	0 
02101.341	0.0540	-0.0166	0.9973	0.0000	0.0000	0.0000	-0.4614	-5.2844	177.7368	37.6800	45	0	0 
02101.349	0.0540	-0.0166	0.9973	0.0000	0.0000	0.0000	-0.4614	-5.2844	177.7368	37.6800	46	0	0 
02101.349	0.0540	-0.0166	0.9973	0.0000	0.0000	0.0000	-0.4614	-5.2844	177.7368	37.6900	46	0	0 
02101.353	0.0540	-0.0166	0.9973	0.0000	0.0000	0.0000	-0.4614	-5.2844	177.7368	37.6900	45	0	0 
02101.365	0.0540	-0.0166	0.9973	0.0000	0.0000	0.0000	-0.4614	-5.2844	177.7368	37.6900	44	0	0 
02101.365	0.0540	-0.0166	0.9973	0.0000	0.0000	0.0000	-0.4559	-5.2844	177.7368	37.6000	44	0	0 
02101.372	0.0540	-0.0166	0.9973	0.0000	0.0000	0.0000	-0.4559	-5.2844	177.7368	37.6000	43	0	0 
02101.377	0.0540	-0.0166	0.9973	0.0000	0.0000	0.0000	-0.4559	-5.2844	177.7368	37.6400	43	0	0 
02101.384	0.0552	-0.0159	0.9968	0.0000	0.0000	0.0000	-0.4559	-5.2844	177.7368	37.6400	43	0	0 
02101.384	0.0552	-0.0159	0.9968	0.0000	0.0000	0.0000	-0.4559	-5.2844	177.7368	37.6500	44	0	0 
02101.390	0.0552	-0.0159	0.9968	0.0000	0.0000	0.0000	-0.4559	-5.2844	177.7368	37.6500	45	0	0 
02101.402	0.0552	-0.0159	0.9968	0.0000	0.0000	0.0000	-0.4559	-5.2844	177.7368	37.6700	45	0	0 
02101.402	0.0552	-0.0159	0.9968	0.0000	0.0000	0.0000	-0.4559	-5.2844	177.7368	37.6700	45	0	0 
02101.404	0.0552	-0.0159	0.9968	0.0000	0.0000	0.0000	-0.4559	-5.2844	177.7368	37.7100	45	0	0 
02101.413	0.0552	-0.0159	0.9968	0.0000	0.0000	0.0000	-0.4559	-5.2844	177.7368	37.7100	45	0	0 
02101.413	0.0552	-0.0159	0.9968	0.0000	0.0000	0.0000	-0.4559	-5.2844	177.7368	37.6400	45	0	0 
02101.443	0.0557	-0.0161	0.9963	0.0000	0.0000	0.0000	-0.4559	-5.2844	177.7368	37.6400	44	0	0 
02101.445	0.0557	-0.0161	0.9963	0.0000	0.0000	0.0000	-0.4559	-5.2844	177.7368	37.6100	44	0	0 
02101.445	0.0557	-0.0161	0.9963	0.0000	0.0000	0.0000	-0.4559	-5.2844	177.7368	37.6100	43	0	0 
02101.445	0.0557	-0.0161	0.9963	0.0000	0.0000	0.0000	-0.4559	-5.2844	177.7368	37.6400	42	0	0 
02101.445	0.0557	-0.0161	0.9963	0.0000	0.0000	0.0000	-0.4559	-5.2844	177.7368	37.6400	42	0	0 
02101.448	0.0557	-0.0161	0.9963	0.0000	0.0000	0.0000	-0.4559	-5.2844	177.7368	37.6400	43	0	0 
02101.448	0.0557	-0.0161	0.9963	0.0000	0.0000	0.0000	-0.4559	-5.2844	177.7368	37.6800	43	0	0 
02101.457	0.0557	-0.0161	0.9963	0.0000	0.0000	0.0000	-0.4559	-5.2844	177.7368	37.6800	43	0	0 
02101.465	0.0552	-0.0159	0.9961	0.0000	0.0000	0.0000	-0.4559	-5.2844	177.7368	37.6200	43	0	0 
02101.465	0.0552	-0.0159	0.9961	0.0000	0.0000	0.0000	-0.4559	-5.2844	177.7368	37.6200	42	0	0 
02101.472	0.0552	-0.0159	0.9961	0.0000	0.0000	0.0000	-0.4559	-5.2899	177.7368	37.6600	43	0	0 
02101.481	0.0552	-0.0159	0.9961	0.0000	0.0000	0.0000	-0.4559	-5.2899	177.7368	37.6600	43	0	0 
02101.481	0.0552	-0.0159	0.9961	0.0000	0.0000	0.0000	-0.4559	-5.2899	177.7368	37.7200	42	0	0 
02101.486	0.0552	-0.0159	0.9961	0.0000	0.0000	0.0000	-0.4559	-5.2899	177.7368	37.7200	42	0	0 
02101.492	0.0552	-0.0159	0.9961	0.0000	0.0000	0.0000	-0.4559	-5.2899	177.7368	37.7000	42	0	0 
02101.502	0.0552	-0.0159	0.9961	0.0000	0.0000	0.0000	-0.4559	-5.2899	177.7368	37.7000	42	0	0 
02101.502	0.0552	-0.0166	0.9958	0.0000	0.0000	0.0000	-0.4559	-5.2899	177.7368	37.6800	42	0	0 
02101.510	0.0552	-0.0166	0.9958	0.0000	0.0000	0.0000	-0.4559	-5.2899	177.7368	37.6800	42	0	0 
02101.514	0.0552	-0.0166	0.9958	0.0000	0.0000	0.0000	-0.4559	-5.2899	177.7368	37.6000	41	0	0 
02101.514	0.0552	-0.0166	0.9958	0.0000	0.0000	0.0000	-0.4559	-5.2899	177.7368	37.6000	41	0	0 
02101.524	0.0552	-0.0166	0.9958	0.0000	0.0000	0.0000	-0.4559	-5.2899	177.7368	37.6000	41	0	0 
02101.524	0.0552	-0.0166	0.9958	0.0000	0.0000	0.0000	-0.4559	-5.2899	177.7368	37.7000	41	0	0 
02101.526	0.0552	-0.0166	0.9958	0.0000	0.0000	0.0000	-0.4559	-5.2899	177.7368	37.7000	41	0	0 
02101.539	0.0552	-0.0166	0.9958	0.0000	0.0000	0.0000	-0.4559	-5.2899	177.7368	37.7200	42	0	0 
02101.543	0.0542	-0.0159	0.9958	0.0000	0.0000	0.0000	-0.4559	-5.2899	177.7368	37.7200	42	0	0 
02101.543	0.0542	-0.0159	0.9958	0.0000	0.0000	0.0000	-0.4559	-5.2899	177.7368	37.6700	42	0	0 
02101.551	0.0542	-0.0159	0.9958	0.0000	0.0000	0.0000	-0.4559	-5.2899	177.7368	37.6700	42	0	0 
02101.559	0.0542	-0.0159	0.9958	0.0000	0.0000	0.0000	-0.4504	-5.2899	177.7368	37.6800	42	0	0 
02101.559	0.0542	-0.0159	0.9958	0.0000	0.0000	0.0000	-0.4504	-5.2899	177.7368	37.6800	41	0	0 
02101.565	0.0542	-0.0159	0.9958	0.0000	0.0000	0.0000	-0.4504	-5.2899	177.7368	37.6800	40	0	0 
02101.576	0.0542	-0.0159	0.9958	0.0000	0.0000	0.0000	-0.4504	-5.2899	177.7368	37.6800	40	0	0 
02101.580	0.0542	-0.0159	0.9958	0.0000	0.0000	0.0000	-0.4504	-5.2899	177.7368	37.7200	40	0	0 
02101.580	0.0537	-0.0159	0.9966	0.0000	0.0000	0.0000	-0.4504	-5.2899	177.7368	37.7200	40	0	0 
02101.589	0.0537	-0.0159	0.9966	0.0000	0.0000	0.0000	-0.4504	-5.2899	177.7368	37.6500	40	0	0 
02101.589	0.0537	-0.0159	0.9966	0.0000	0.0000	0.0000	-0.4504	-5.2899	177.7368	37.6500	40	0	0 
02101.598	0.0537	-0.0159	0.9966	0.0000	0.0000	0.0000	-0.4504	-5.2899	177.7368	37.6000	40	0	0 
02101.622	0.0537	-0.0159	0.9966	0.0000	0.0000	0.0000	-0.4504	-5.2899	177.7368	37.6000	41	0	0 
02101.623	0.0537	-0.0159	0.9966	0.0000	0.0000	0.0000	-0.4504	-5.2899	177.7368	37.6000	41	0	0 
02101.623	0.0537	-0.0159	0.9966	0.0000	0.0000	0.0000	-0.4504	-5.2899	177.7368	37.7000	41	0	0 
02101.623	0.0537	-0.0159	0.9966	0.0000	0.0000	0.0000	-0.4504	-5.2899	177.7368	37.7000	42	0	0 
02101.625	0.0540	-0.0164	0.9963	0.0000	0.0000	0.0000	-0.4504	-5.2899	177.7368	37.6900	41	0	0 
02101.625	0.0540	-0.0164	0.9963	0.0000	0.0000	0.0000	-0.4504	-5.2899	177.7368	37.6900	41	0	0 
02101.632	0.0540	-0.0164	0.9963	0.0000	0.0000	0.0000	-0.4504	-5.2899	177.7368	37.6600	40	0	0 
02101.638	0.0540	-0.0164	0.9963	0.0000	0.0000	0.0000	-0.4504	-5.2899	177.7368	37.6600	40	0	0 
02101.638	0.0540	-0.0164	0.9963	0.0000	0.0000	0.0000	-0.4504	-5.2899	177.7368	37.6900	40	0	0 
02101.644	0.0540	-0.0164	0.9963	0.0000	0.0000	0.0000	-0.4504	-5.2899	177.7368	37.6900	41	0	0 
02101.656	0.0540	-0.0164	0.9963	0.0000	0.0000	0.0000	-0.4504	-5.2899	177.7368	37.7100	42	0	0 
02101.656	0.0540	-0.0164	0.9963	0.0000	0.0000	0.0000	-0.4504	-5.2899	177.7368	37.7100	43	0	0 
02101.661	0.0532	-0.0161	0.9971	0.0000	0.0000	0.0000	-0.4504	-5.2899	177.7368	37.6300	43	0	0 
02101.667	0.0532	-0.0161	0.9971	0.0000	0.0000	0.0000	-0.4504	-5.2899	177.7368	37.6300	42	0	0 
02101.674	0.0532	-0.0161	0.9971	0.0000	0.0000	0.0000	-0.4504	-5.2899	177.7368	37.6700	42	0	0 
02101.674	0.0532	-0.0161	0.9971	0.0000	0.0000	0.0000	-0.4504	-5.2899	177.7368	37.6700	42	0	0 
02101.686	0.0532	-0.0161	0.9971	0.0000	0.0000	0.0000	-0.4504	-5.2899	177.7368	37.6100	42	0	0 
02101.689	0.0532	-0.0161	0.9971	0.0000	0.0000	0.0000	-0.4504	-5.2899	177.7368	37.6100	41	0	0 
02101.689	0.0532	-0.0161	0.9971	0.0000	0.0000	0.0000	-0.4504	-5.2899	177.7368	37.6100	41	0	0 
02101.698	0.0532	-0.0161	0.9971	0.0000	0.0000	0.0000	-0.4504	-5.2899	177.7368	37.7000	40	0	0 
02101.703	0.0540	-0.0164	0.9971	0.0000	0.0000	0.0000	-0.4504	-5.2899	177.7368	37.7000	40	0	0 
02101.703	0.0540	-0.0164	0.9971	0.0000	0.0000	0.0000	-0.4504	-5.2899	177.7368	37.6600	40	0	0 
02101.709	0.0540	-0.0164	0.9971	0.0000	0.0000	0.0000	-0.4504	-5.2899	177.7368	37.6600	39	0	0 
02101.720	0.0540	-0.0164	0.9971	0.0000	0.0000	0.0000	-0.4504	-5.2899	177.7368	37.7400	39	0	0 
02101.720	0.0540	-0.0164	0.9971	0.0000	0.0000	0.0000	-0.4504	-5.2899	177.7368	37.7400	39	0	0 
02101.723	0.0540	-0.0164	0.9971	0.0000	0.0000	0.0000	-0.4504	-5.2899	177.7368	37.6700	38	0	0 
02101.733	0.0540	-0.0164	0.9971	0.0000	0.0000	0.0000	-0.4504	-5.2899	177.7368	37.6700	37	0	0 
02101.740	0.0540	-0.0164	0.9971	0.0000	0.0000	0.0000	-0.4504	-5.2899	177.7368	37.7100	36	0	0 
02101.740	0.0540	-0.0164	0.9968	0.0000	0.0000	0.0000	-0.4504	-5.2899	177.7368	37.7100	36	0	0 
02101.748	0.0540	-0.0164	0.9968	0.0000	0.0000	0.0000	-0.4504	-5.2899	177.7368	37.6300	36	0	0 
02101.755	0.0540	-0.0164	0.9968	0.0000	0.0000	0.0000	-0.4504	-5.2899	177.7368	37.6300	35	0	0 
02101.755	0.0540	-0.0164	0.9968	0.0000	0.0000	0.0000	-0.4504	-5.2899	177.7368	37.6900	37	0	0 
02101.763	0.0540	-0.0164	0.9968	0.0000	0.0000	0.0000	-0.4504	-5.2899	177.7368	37.6900	38	0	0 
02101.767	0.0540	-0.0164	0.9968	0.0000	0.0000	0.0000	-0.4504	-5.2899	177.7368	37.6600	38	0	0 
02101.767	0.0540	-0.0164	0.9968	0.0000	0.0000	0.0000	-0.4504	-5.2899	177.7368	37.6600	39	0	0 
02101.780	0.0540	-0.0164	0.9968	0.0000	0.0000	0.0000	-0.4504	-5.2899	177.7368	37.6600	39	0	0 
02101.782	0.0542	-0.0168	0.9966	0.0000	0.0000	0.0000	-0.4504	-5.2899	177.7368	37.7200	39	0	0 
02101.782	0.0542	-0.0168	0.9966	0.0000	0.0000	0.0000	-0.4504	-5.2899	177.7368	37.7200	38	0	0 
02101.796	0.0542	-0.0168	0.9966	0.0000	0.0000	0.0000	-0.4504	-5.2899	177.7368	37.6200	37	0	0 
02101.798	0.0542	-0.0168	0.9966	0.0000	0.0000	0.0000	-0.4504	-5.2899	177.7368	37.6200	37	0	0 
02101.798	0.0542	-0.0168	0.9966	0.0000	0.0000	0.0000	-0.4504	-5.2899	177.7368	37.6100	38	0	0 
02101.806	0.0542	-0.0168	0.9966	0.0000	0.0000	0.0000	-0.4504	-5.2899	177.7368	37.6100	39	0	0 
02101.814	0.0542	-0.0168	0.9966	0.0000	0.0000	0.0000	-0.4504	-5.2899	177.7368	37.6300	39	0	0 
02101.820	0.0542	-0.0168	0.9966	0.0000	0.0000	0.0000	-0.4504	-5.2899	177.7368	37.6300	39	0	0 
02101.820	0.0542	-0.0159	0.9963	0.0000	0.0000	0.0000	-0.4504	-5.2899	177.7368	37.6800	39	0	0 
02101.849	0.0542	-0.0159	0.9963	0.0000	0.0000	0.0000	-0.4504	-5.2899	177.7368	37.6800	39	0	0 
02101.851	0.0542	-0.0159	0.9963	0.0000	0.0000	0.0000	-0.4449	-5.2899	177.7368	37.6700	40	0	0 
02101.851	0.0542	-0.0159	0.9963	0.0000	0.0000	0.0000	-0.4449	-5.2899	177.7368	37.6700	40	0	0 
02101.851	0.0542	-0.0159	0.9963	0.0000	0.0000	0.0000	-0.4449	-5.2899	177.7368	37.7200	39	0	0 
02101.851	0.0542	-0.0159	0.9963	0.0000	0.0000	0.0000	-0.4449	-5.2899	177.7368	37.7200	39	0	0 
02101.851	0.0542	-0.0159	0.9963	0.0000	0.0000	0.0000	-0.4449	-5.2899	177.7368	37.7200	38	0	0 
02101.857	0.0542	-0.0159	0.9963	0.0000	0.0000	0.0000	-0.4449	-5.2899	177.7368	37.6700	39	0	0 
02101.865	0.0542	-0.0168	0.9961	0.0000	0.0000	0.0000	-0.4449	-5.2899	177.7368	37.6700	39	0	0 
02101.865	0.0542	-0.0168	0.9961	0.0000	0.0000	0.0000	-0.4449	-5.2899	177.7368	37.6700	39	0	0 
02101.872	0.0542	-0.0168	0.9961	0.0000	0.0000	0.0000	-0.4449	-5.2899	177.7368	37.6700	38	0	0 
02101.879	0.0542	-0.0168	0.9961	0.0000	0.0000	0.0000	-0.4449	-5.2899	177.7368	37.6500	38	0	0 
02101.879	0.0542	-0.0168	0.9961	0.0000	0.0000	0.0000	-0.4449	-5.2899	177.7368	37.6500	39	0	0 
02101.885	0.0542	-0.0168	0.9961	0.0000	0.0000	0.0000	-0.4449	-5.2899	177.7368	37.7500	39	0	0 
02101.896	0.0542	-0.0168	0.9961	0.0000	0.0000	0.0000	-0.4449	-5.2899	177.7368	37.7500	40	0	0 
02101.904	0.0542	-0.0168	0.9961	0.0000	0.0000	0.0000	-0.4449	-5.2899	177.7368	37.6700	41	0	0 
02101.904	0.0544	-0.0166	0.9963	0.0000	0.0000	0.0000	-0.4449	-5.2899	177.7368	37.6700	41	0	0 
02101.907	0.0544	-0.0166	0.9963	0.0000	0.0000	0.0000	-0.4449	-5.2899	177.7368	37.7100	41	0	0 
02101.933	0.0544	-0.0166	0.9963	0.0000	0.0000	0.0000	-0.4449	-5.2899	177.7368	37.7100	42	0	0 
02101.933	0.0544	-0.0166	0.9963	0.0000	0.0000	0.0000	-0.4449	-5.2899	177.7368	37.6600	43	0	0 
02101.941	0.0544	-0.0166	0.9963	0.0000	0.0000	0.0000	-0.4449	-5.2899	177.7368	37.6600	43	0	0 
02101.943	0.0544	-0.0166	0.9963	0.0000	0.0000	0.0000	-0.4449	-5.2899	177.7368	37.7500	43	0	0 
02101.943	0.0544	-0.0166	0.9963	0.0000	0.0000	0.0000	-0.4449	-5.2899	177.7368	37.7500	42	0	0 
02101.945	0.0544	-0.0166	0.9963	0.0000	0.0000	0.0000	-0.4449	-5.2899	177.7368	37.7500	42	0	0 
02101.947	0.3772	-0.0496	1.0669	0.0000	0.0000	0.0000	-0.4504	-5.3394	177.7368	37.6900	41	0	0 
02101.947	0.3772	-0.0496	1.0669	0.0000	0.0000	0.0000	-0.4559	-5.3888	177.7368	37.6900	41	0	0 
02101.953	0.3772	-0.0496	1.0669	0.0000	0.0000	0.0000	-0.4614	-5.4382	177.7313	37.7200	41	0	0 
02101.960	0.3772	-0.0496	1.0669	0.0000	0.0000	0.0000	-0.4669	-5.4877	177.7313	37.7200	41	0	0 
02101.960	0.3772	-0.0496	1.0669	0.0000	0.0000	0.0000	-0.4724	-5.5316	177.7313	37.6800	40	0	0 
02101.964	0.3772	-0.0496	1.0669	0.0000	0.0000	0.0000	-0.4779	-5.5811	177.7313	37.6800	38	0	0 
02101.974	0.3772	-0.0496	1.0669	0.0000	0.0000	0.0000	-0.4834	-5.6305	177.7313	37.6500	39	0	0 
02101.983	0.3772	-0.0496	1.0669	0.0000	0.0000	0.0000	-0.4834	-5.6799	177.7258	37.6500	39	0	0 
02101.983	0.8181	-0.1067	1.0430	0.1221	-1.4648	0.7324	-0.4999	-5.7898	177.7258	37.6800	37	0	0 
02101.988	0.8181	-0.1067	1.0430	0.1221	-1.4648	0.7324	-0.5109	-5.8942	177.7258	37.6800	36	0	0 
02101.996	0.8181	-0.1067	1.0430	0.1221	-1.4648	0.7324	-0.5273	-6.0040	177.7258	37.7000	35	0	0 
02101.996	0.8181	-0.1067	1.0430	0.1221	-1.4648	0.7324	-0.5383	-6.1139	177.7203	37.7000	34	0	0 
02102.027	0.8181	-0.1067	1.0430	0.1221	-1.4648	0.7324	-0.5493	-6.2183	177.7203	37.7500	34	0	0 
02102.029	0.8181	-0.1067	1.0430	0.1221	-1.4648	0.7324	-0.5658	-6.3281	177.7203	37.7500	34	0	0 
02102.029	0.8181	-0.1067	1.0430	0.1221	-1.4648	0.7324	-0.5768	-6.4325	177.7203	37.6900	33	0	0 
02102.029	0.8181	-0.1067	1.0430	0.1221	-1.4648	0.7324	-0.5878	-6.5424	177.7148	37.6900	33	0	0 
02102.029	1.5059	-0.2007	1.0007	0.2441	-4.6387	2.1362	-0.6152	-6.7126	177.7148	37.6900	33	0	0 
02102.029	1.5059	-0.2007	1.0007	0.2441	-4.6387	2.1362	-0.6427	-6.8829	177.7094	37.7500	33	0	0 
02102.031	1.5059	-0.2007	1.0007	0.2441	-4.6387	2.1362	-0.6647	-7.0532	177.7039	37.7500	32	0	0 
02102.042	1.5059	-0.2007	1.0007	0.2441	-4.6387	2.1362	-0.6921	-7.2235	177.7039	37.6700	32	0	0 
02102.042	1.5059	-0.2007	1.0007	0.2441	-4.6387	2.1362	-0.7196	-7.3938	177.6984	37.6700	32	0	0 
02102.046	1.5059	-0.2007	1.0007	0.2441	-4.6387	2.1362	-0.7416	-7.5641	177.6984	37.6900	32	0	0 
02102.054	1.5059	-0.2007	1.0007	0.2441	-4.6387	2.1362	-0.7690	-7.7344	177.6929	37.6900	33	0	0 
02102.058	1.5059	-0.2007	1.0007	0.2441	-4.6387	2.1362	-0.7965	-7.9047	177.6874	37.7100	33	0	0 
02102.058	2.1675	-0.3264	0.8926	0.2441	-7.8125	4.0283	-0.8405	-8.1134	177.6819	37.7100	34	0	0 
02102.074	2.1675	-0.3264	0.8926	0.2441	-7.8125	4.0283	-0.8899	-8.3221	177.6709	37.6700	34	0	0 
02102.076	2.1675	-0.3264	0.8926	0.2441	-7.8125	4.0283	-0.9338	-8.5309	177.6654	37.6700	34	0	0 
02102.076	2.1675	-0.3264	0.8926	0.2441	-7.8125	4.0283	-0.9778	-8.7396	177.6544	37.7100	35	0	0 
02102.084	2.1675	-0.3264	0.8926	0.2441	-7.8125	4.0283	-1.0217	-8.9484	177.6489	37.7100	35	0	0 
02102.090	2.1675	-0.3264	0.8926	0.2441	-7.8125	4.0283	-1.0712	-9.1516	177.6379	37.6600	36	0	0 
02102.090	2.1675	-0.3264	0.8926	0.2441	-7.8125	4.0283	-1.1151	-9.3604	177.6324	37.6600	36	0	0 
02102.101	2.1675	-0.3264	0.8926	0.2441	-7.8125	4.0283	-1.1591	-9.5636	177.6215	37.7100	37	0	0 
02102.106	2.5098	-0.4116	0.8069	0.1831	-8.2397	5.8594	-1.2195	-9.7778	177.6105	37.7100	38	0	0 
02102.106	2.5098	-0.4116	0.8069	0.1831	-8.2397	5.8594	-1.2854	-9.9921	177.5995	37.7100	38	0	0 
02102.112	2.5098	-0.4116	0.8069	0.1831	-8.2397	5.8594	-1.3458	-10.2063	177.5885	37.6800	39	0	0 
02102.118	2.5098	-0.4116	0.8069	0.1831	-8.2397	5.8594	-1.4063	-10.4205	177.5830	37.6800	39	0	0 
02102.118	2.5098	-0.4116	0.8069	0.1831	-8.2397	5.8594	-1.4667	-10.6348	177.5720	37.6700	39	0	0 
02102.127	2.5098	-0.4116	0.8069	0.1831	-8.2397	5.8594	-1.5271	-10.8490	177.5610	37.6700	40	0	0 
02102.137	2.5098	-0.4116	0.8069	0.1831	-8.2397	5.8594	-1.5875	-11.0577	177.5555	37.6700	41	0	0 
02102.137	2.5098	-0.4116	0.8069	0.1831	-8.2397	5.8594	-1.6479	-11.2720	177.5446	37.6700	41	0	0 
02102.140	2.4050	-0.4280	0.6707	0.1221	-4.1504	6.4697	-1.7249	-11.4642	177.5281	37.7100	41	0	0 
02102.151	2.4050	-0.4280	0.6707	0.1221	-4.1504	6.4697	-1.7963	-11.6510	177.5116	37.7100	43	0	0 
02102.155	2.4050	-0.4280	0.6707	0.1221	-4.1504	6.4697	-1.8677	-11.8433	177.5006	37.6700	44	0	0 
02102.155	2.4050	-0.4280	0.6707	0.1221	-4.1504	6.4697	-1.9391	-12.0355	177.4841	37.6700	45	0	0 
02102.163	2.4050	-0.4280	0.6707	0.1221	-4.1504	6.4697	-2.0160	-12.2223	177.4677	37.6200	46	0	0 
02102.172	2.4050	-0.4280	0.6707	0.1221	-4.1504	6.4697	-2.0874	-12.4146	177.4567	37.6200	47	0	0 
02102.172	2.4050	-0.4280	0.6707	0.1221	-4.1504	6.4697	-2.1588	-12.6013	177.4402	37.6800	48	0	0 
02102.175	2.4050	-0.4280	0.6707	0.1221	-4.1504	6.4697	-2.2302	-12.7936	177.4292	37.6800	48	0	0 
02102.194	1.9382	-0.3699	0.5972	0.1221	5.0659	5.0659	-2.3016	-12.9309	177.4072	37.6500	49	0	0 
02102.194	1.9382	-0.3699	0.5972	0.1221	5.0659	5.0659	-2.3676	-13.0682	177.3907	37.6500	50	0	0 
02102.196	1.9382	-0.3699	0.5972	0.1221	5.0659	5.0659	-2.4390	-13.2056	177.3688	37.6500	51	0	0 
02102.199	1.9382	-0.3699	0.5972	0.1221	5.0659	5.0659	-2.5049	-13.3429	177.3523	37.6800	52	0	0 
02102.199	1.9382	-0.3699	0.5972	0.1221	5.0659	5.0659	-2.5763	-13.4802	177.3303	37.6800	53	0	0 
02102.205	1.9382	-0.3699	0.5972	0.1221	5.0659	5.0659	-2.6422	-13.6176	177.3138	37.6500	54	0	0 
02102.219	1.9382	-0.3699	0.5972	0.1221	5.0659	5.0659	-2.7136	-13.7549	177.2919	37.6500	55	0	0 
02102.219	1.9382	-0.3699	0.5972	0.1221	5.0659	5.0659	-2.7795	-13.8922	177.2754	37.7100	56	0	0 
02102.221	1.2158	-0.2410	0.4448	0.3052	17.5171	2.1362	-2.8400	-13.9581	177.2479	37.7100	57	0	0 
02102.229	1.2158	-0.2410	0.4448	0.3052	17.5171	2.1362	-2.8949	-14.0295	177.2150	37.6600	57	0	0 
02102.260	1.2158	-0.2410	0.4448	0.3052	17.5171	2.1362	-2.9498	-14.0955	177.1875	37.6600	57	0	0 
02102.260	1.2158	-0.2410	0.4448	0.3052	17.5171	2.1362	-3.0048	-14.1669	177.1545	37.7100	57	0	0 
02102.262	1.2158	-0.2410	0.4448	0.3052	17.5171	2.1362	-3.0597	-14.2328	177.1271	37.7100	58	0	0 
02102.262	1.2158	-0.2410	0.4448	0.3052	17.5171	2.1362	-3.1201	-14.3042	177.0941	37.6700	58	0	0 
02102.262	1.2158	-0.2410	0.4448	0.3052	17.5171	2.1362	-3.1750	-14.3701	177.0667	37.6700	59	0	0 
02102.262	1.2158	-0.2410	0.4448	0.3052	17.5171	2.1362	-3.2300	-14.4360	177.0392	37.6600	59	0	0 
02102.264	0.5005	-0.1047	0.2705	0.4272	29.4800	-1.4038	-3.2629	-14.4305	177.0007	37.6600	59	0	0 
02102.264	0.5005	-0.1047	0.2705	0.4272	29.4800	-1.4038	-3.3014	-14.4196	176.9623	37.6600	61	0	0 
02102.274	0.5005	-0.1047	0.2705	0.4272	29.4800	-1.4038	-3.3344	-14.4141	176.9238	37.6800	62	0	0 
02102.278	0.5005	-0.1047	0.2705	0.4272	29.4800	-1.4038	-3.3673	-14.4031	176.8909	37.6800	62	0	0 
02102.278	0.5005	-0.1047	0.2705	0.4272	29.4800	-1.4038	-3.4003	-14.3921	176.8524	37.6800	63	0	0 
02102.289	0.5005	-0.1047	0.2705	0.4272	29.4800	-1.4038	-3.4387	-14.3866	176.8140	37.6800	63	0	0 
02102.297	0.5005	-0.1047	0.2705	0.4272	29.4800	-1.4038	-3.4717	-14.3756	176.7755	37.7100	64	0	0 
02102.297	0.5005	-0.1047	0.2705	0.4272	29.4800	-1.4038	-3.5046	-14.3701	176.7426	37.7100	65	0	0 
02102.303	-0.0342	0.0010	0.1313	0.3052	38.9404	-4.1504	-3.4827	-14.0955	176.7096	37.7100	66	0	0 
02102.317	-0.0342	0.0010	0.1313	0.3052	38.9404	-4.1504	-3.4607	-13.8263	176.6766	37.7100	66	0	0 
02102.325	-0.0342	0.0010	0.1313	0.3052	38.9404	-4.1504	-3.4387	-13.5516	176.6437	37.7300	65	0	0 
02102.325	-0.0342	0.0010	0.1313	0.3052	38.9404	-4.1504	-3.4167	-13.2825	176.6107	37.7300	65	0	0 
02102.341	-0.0342	0.0010	0.1313	0.3052	38.9404	-4.1504	-3.3948	-13.0133	176.5778	37.7100	64	0	0 
02102.343	-0.0342	0.0010	0.1313	0.3052	38.9404	-4.1504	-3.3728	-12.7441	176.5448	37.7100	64	0	0 
02102.343	-0.0342	0.0010	0.1313	0.3052	38.9404	-4.1504	-3.3508	-12.4805	176.5118	37.6400	65	0	0 
02102.345	-0.0342	0.0010	0.1313	0.3052	38.9404	-4.1504	-3.3289	-12.2113	176.4844	37.6400	65	0	0 
02102.350	-0.3408	0.0654	0.0500	0.0000	44.7998	-4.8218	-3.1860	-11.7828	176.3361	37.6600	65	0	0 
02102.350	-0.3408	0.0654	0.0500	0.0000	44.7998	-4.8218	-3.0377	-11.3489	176.1932	37.6600	64	0	0 
02102.353	-0.3408	0.0654	0.0500	0.0000	44.7998	-4.8218	-2.8949	-10.9204	176.0504	37.6600	65	0	0 
02102.359	-0.3408	0.0654	0.0500	0.0000	44.7998	-4.8218	-2.7521	-10.4865	175.9076	37.6200	66	0	0 
02102.359	-0.3408	0.0654	0.0500	0.0000	44.7998	-4.8218	-2.6093	-10.0580	175.7703	37.6200	67	0	0 
02102.368	-0.3408	0.0654	0.0500	0.0000	44.7998	-4.8218	-2.4664	-9.6295	175.6329	37.6800	67	0	0 
02102.379	-0.3408	0.0654	0.0500	0.0000	44.7998	-4.8218	-2.3291	-9.1956	175.4956	37.6800	67	0	0 
02102.379	-0.3408	0.0654	0.0500	0.0000	44.7998	-4.8218	-2.1918	-8.7671	175.3638	37.6800	67	0	0 
02102.384	-0.4536	0.0938	0.0254	-0.2441	46.3867	-3.0518	-2.0160	-8.3551	175.1990	37.6800	67	0	0 
02102.397	-0.4536	0.0938	0.0254	-0.2441	46.3867	-3.0518	-1.8347	-7.9376	175.0342	37.6800	67	0	0 
02102.400	-0.4536	0.0938	0.0254	-0.2441	46.3867	-3.0518	-1.6589	-7.5201	174.8749	37.6800	67	0	0 
02102.400	-0.4536	0.0938	0.0254	-0.2441	46.3867	-3.0518	-1.4832	-7.1027	174.7156	37.6100	67	0	0 
02102.409	-0.4536	0.0938	0.0254	-0.2441	46.3867	-3.0518	-1.3074	-6.6907	174.5618	37.6100	66	0	0 
02102.435	-0.4536	0.0938	0.0254	-0.2441	46.3867	-3.0518	-1.1371	-6.2732	174.4080	37.6900	66	0	0 
02102.435	-0.4536	0.0938	0.0254	-0.2441	46.3867	-3.0518	-0.9668	-5.8612	174.2596	37.6900	66	0	0 
02102.438	-0.4536	0.0938	0.0254	-0.2441	46.3867	-3.0518	-0.7965	-5.4437	174.1058	37.6900	65	0	0 
02102.438	-0.4448	0.1008	0.0493	-0.1831	44.2505	0.8545	-0.6482	-5.0317	174.0015	37.6900	65	0	0 
02102.438	-0.4448	0.1008	0.0493	-0.1831	44.2505	0.8545	-0.5054	-4.6198	173.8916	37.7500	65	0	0 
02102.438	-0.4448	0.1008	0.0493	-0.1831	44.2505	0.8545	-0.3571	-4.2133	173.7872	37.7500	64	0	0 
02102.440	-0.4448	0.1008	0.0493	-0.1831	44.2505	0.8545	-0.2142	-3.8013	173.6884	37.7500	62	0	0 
02102.440	-0.4448	0.1008	0.0493	-0.1831	44.2505	0.8545	-0.0714	-3.3948	173.5840	37.7000	60	0	0 
02102.446	-0.4448	0.1008	0.0493	-0.1831	44.2505	0.8545	0.0659	-2.9828	173.4851	37.7000	59	0	0 
02102.458	-0.4448	0.1008	0.0493	-0.1831	44.2505	0.8545	0.2087	-2.5763	173.3862	37.7000	56	0	0 
02102.458	-0.4448	0.1008	0.0493	-0.1831	44.2505	0.8545	0.3461	-2.1698	173.2928	37.7000	53	0	0 
02102.461	-0.3809	0.1465	0.2502	0.6714	34.3018	6.4087	0.4230	-1.8457	173.2983	37.6600	51	0	0 
02102.470	-0.3809	0.1465	0.2502	0.6714	34.3018	6.4087	0.5054	-1.5271	173.3038	37.6600	49	0	0 
02102.478	-0.3809	0.1465	0.2502	0.6714	34.3018	6.4087	0.5823	-1.2085	173.3093	37.6500	48	0	0 
02102.478	-0.3809	0.1465	0.2502	0.6714	34.3018	6.4087	0.6592	-0.8899	173.3203	37.6500	47	0	0 
02102.481	-0.3809	0.1465	0.2502	0.6714	34.3018	6.4087	0.7416	-0.5713	173.3258	37.6900	48	0	0 
02102.498	-0.3809	0.1465	0.2502	0.6714	34.3018	6.4087	0.8185	-0.2527	173.3368	37.6900	48	0	0 
02102.498	-0.3809	0.1465	0.2502	0.6714	34.3018	6.4087	0.8954	0.0549	173.3478	37.7000	49	0	0 
02102.508	-0.3809	0.1465	0.2502	0.6714	34.3018	6.4087	0.9723	0.3735	173.3533	37.7000	49	0	0 
02102.511	-0.4463	0.1855	0.4287	2.6855	15.6250	11.9019	1.0492	0.5713	173.4082	37.6500	50	0	0 
02102.511	-0.4463	0.1855	0.4287	2.6855	15.6250	11.9019	1.1206	0.7690	173.4576	37.6500	50	0	0 
02102.518	-0.4463	0.1855	0.4287	2.6855	15.6250	11.9019	1.1920	0.9668	173.5071	37.6200	51	0	0 
02102.520	-0.4463	0.1855	0.4287	2.6855	15.6250	11.9019	1.2689	1.1591	173.5565	37.6200	51	0	0 
02102.520	-0.4463	0.1855	0.4287	2.6855	15.6250	11.9019	1.3403	1.3568	173.6060	37.6200	52	0	0 
02102.526	-0.4463	0.1855	0.4287	2.6855	15.6250	11.9019	1.4117	1.5491	173.6554	37.6500	52	0	0 
02102.535	-0.4463	0.1855	0.4287	2.6855	15.6250	11.9019	1.4886	1.7468	173.7103	37.6500	53	0	0 
02102.535	-0.4463	0.1855	0.4287	2.6855	15.6250	11.9019	1.5601	1.9391	173.7598	37.7400	53	0	0 
02102.538	-0.3955	0.2222	0.5981	4.8828	-1.8921	15.0146	1.6425	2.0105	173.8312	37.7400	54	0	0 
02102.572	-0.3955	0.2222	0.5981	4.8828	-1.8921	15.0146	1.7194	2.0819	173.9081	37.6500	55	0	0 
02102.572	-0.3955	0.2222	0.5981	4.8828	-1.8921	15.0146	1.8018	2.1533	173.9795	37.6500	54	0	0 
02102.577	-0.3955	0.2222	0.5981	4.8828	-1.8921	15.0146	1.8787	2.2192	174.0509	37.6600	53	0	0 
02102.580	-0.3955	0.2222	0.5981	4.8828	-1.8921	15.0146	1.9556	2.2906	174.1223	37.6600	53	0	0 
02102.585	-0.3955	0.2222	0.5981	4.8828	-1.8921	15.0146	2.0380	2.3621	174.1937	37.7400	54	0	0 
02102.585	-0.3955	0.2222	0.5981	4.8828	-1.8921	15.0146	2.1149	2.4335	174.2706	37.7400	54	0	0 
02102.591	-0.3955	0.2222	0.5981	4.8828	-1.8921	15.0146	2.1973	2.4994	174.3420	37.6500	55	0	0 
02102.606	-0.4412	0.2278	0.6497	6.3477	-11.9629	15.0757	2.2797	2.5214	174.4135	37.6500	56	0	0 
02102.606	-0.4412	0.2278	0.6497	6.3477	-11.9629	15.0757	2.3621	2.5433	174.4849	37.6700	56	0	0 
02102.609	-0.4412	0.2278	0.6497	6.3477	-11.9629	15.0757	2.4445	2.5653	174.5508	37.6700	56	0	0 
02102.614	-0.4412	0.2278	0.6497	6.3477	-11.9629	15.0757	2.5269	2.5818	174.6222	37.6700	55	0	0 
02102.614	-0.4412	0.2278	0.6497	6.3477	-11.9629	15.0757	2.6093	2.6038	174.6936	37.6800	55	0	0 
02102.616	-0.4412	0.2278	0.6497	6.3477	-11.9629	15.0757	2.6917	2.6257	174.7595	37.6800	55	0	0 
02102.619	-0.4412	0.2278	0.6497	6.3477	-11.9629	15.0757	2.7740	2.6422	174.8309	37.6900	55	0	0 
02102.619	-0.4412	0.2278	0.6497	6.3477	-11.9629	15.0757	2.8564	2.6642	174.9023	37.6900	55	0	0 
02102.621	-0.3555	0.1763	0.5234	6.5308	-10.0098	12.4512	2.9333	2.6917	174.9573	37.7000	55	0	0 
02102.635	-0.3555	0.1763	0.5234	6.5308	-10.0098	12.4512	3.0157	2.7246	175.0122	37.7000	55	0	0 
02102.639	-0.3555	0.1763	0.5234	6.5308	-10.0098	12.4512	3.0927	2.7521	175.0726	37.6900	55	0	0 
02102.639	-0.3555	0.1763	0.5234	6.5308	-10.0098	12.4512	3.1750	2.7850	175.1276	37.6900	55	0	0 
02102.664	-0.3555	0.1763	0.5234	6.5308	-10.0098	12.4512	3.2520	2.8125	175.1825	37.7100	55	0	0 
02102.667	-0.3555	0.1763	0.5234	6.5308	-10.0098	12.4512	3.3344	2.8455	175.2374	37.7100	54	0	0 
02102.667	-0.3555	0.1763	0.5234	6.5308	-10.0098	12.4512	3.4113	2.8729	175.2979	37.7000	53	0	0 
02102.667	-0.3555	0.1763	0.5234	6.5308	-10.0098	12.4512	3.4882	2.9004	175.3528	37.7000	53	0	0 
02102.669	-0.4373	0.1265	0.4873	5.0659	3.2349	9.0332	3.5486	3.0212	175.3967	37.7300	53	0	0 
02102.669	-0.4373	0.1265	0.4873	5.0659	3.2349	9.0332	3.6035	3.1421	175.4352	37.7300	52	0	0 
02102.674	-0.4373	0.1265	0.4873	5.0659	3.2349	9.0332	3.6639	3.2574	175.4791	37.6800	51	0	0 
02102.683	-0.4373	0.1265	0.4873	5.0659	3.2349	9.0332	3.7189	3.3783	175.5231	37.6800	51	0	0 
02102.683	-0.4373	0.1265	0.4873	5.0659	3.2349	9.0332	3.7793	3.4937	175.5670	37.6800	51	0	0 
02102.689	-0.4373	0.1265	0.4873	5.0659	3.2349	9.0332	3.8342	3.6145	175.6110	37.7400	51	0	0 
02102.706	-0.4373	0.1265	0.4873	5.0659	3.2349	9.0332	3.8947	3.7299	175.6549	37.7400	51	0	0 
02102.706	-0.4373	0.1265	0.4873	5.0659	3.2349	9.0332	3.9496	3.8452	175.6989	37.6800	50	0	0 
02102.709	-0.3804	0.0701	0.3662	2.8076	13.1226	7.2632	3.9880	4.0265	175.7373	37.6800	48	0	0 
02102.716	-0.3804	0.0701	0.3662	2.8076	13.1226	7.2632	4.0210	4.2023	175.7758	37.7300	47	0	0 
02102.716	-0.3804	0.0701	0.3662	2.8076	13.1226	7.2632	4.0594	4.3835	175.8142	37.7300	45	0	0 
02102.719	-0.3804	0.0701	0.3662	2.8076	13.1226	7.2632	4.0924	4.5593	175.8582	37.6700	44	0	0 
02102.721	-0.3804	0.0701	0.3662	2.8076	13.1226	7.2632	4.1254	4.7351	175.8966	37.6700	43	0	0 
02102.735	-0.3804	0.0701	0.3662	2.8076	13.1226	7.2632	4.1638	4.9109	175.9351	37.6700	42	0	0 
02102.735	-0.3804	0.0701	0.3662	2.8076	13.1226	7.2632	4.1968	5.0867	175.9790	37.6700	41	0	0 
02102.749	-0.3804	0.0701	0.3662	2.8076	13.1226	7.2632	4.2352	5.2625	176.0175	37.6700	40	0	0 
02102.751	-0.4419	0.0720	0.6345	0.2441	8.9111	7.8735	4.2462	5.3888	176.0669	37.6700	39	0	0 
02102.751	-0.4419	0.0720	0.6345	0.2441	8.9111	7.8735	4.2572	5.5096	176.1108	37.6300	39	0	0 
02102.756	-0.4419	0.0720	0.6345	0.2441	8.9111	7.8735	4.2682	5.6305	176.1548	37.6300	38	0	0 
02102.759	-0.4419	0.0720	0.6345	0.2441	8.9111	7.8735	4.2847	5.7513	176.2042	37.6700	38	0	0 
02102.759	-0.4419	0.0720	0.6345	0.2441	8.9111	7.8735	4.2957	5.8722	176.2482	37.6700	37	0	0 
02102.768	-0.4419	0.0720	0.6345	0.2441	8.9111	7.8735	4.3066	5.9930	176.2976	37.6700	37	0	0 
02102.778	-0.4419	0.0720	0.6345	0.2441	8.9111	7.8735	4.3176	6.1139	176.3416	37.7000	36	0	0 
02102.778	-0.4419	0.0720	0.6345	0.2441	8.9111	7.8735	4.3341	6.2347	176.3855	37.7000	35	0	0 
02102.780	-0.4421	0.0791	0.7512	-2.3193	-6.7749	10.2539	4.3286	6.2622	176.4404	37.7000	35	0	0 
02102.796	-0.4421	0.0791	0.7512	-2.3193	-6.7749	10.2539	4.3286	6.2897	176.4899	37.7000	34	0	0 
02102.799	-0.4421	0.0791	0.7512	-2.3193	-6.7749	10.2539	4.3286	6.3171	176.5448	37.7300	33	0	0 
02102.799	-0.4421	0.0791	0.7512	-2.3193	-6.7749	10.2539	4.3286	6.3446	176.5942	37.7300	33	0	0 
02102.804	-0.4421	0.0791	0.7512	-2.3193	-6.7749	10.2539	4.3286	6.3721	176.6492	37.7000	33	0	0 
02102.810	-0.4421	0.0791	0.7512	-2.3193	-6.7749	10.2539	4.3286	6.3995	176.6986	37.7000	33	0	0 
02102.810	-0.4421	0.0791	0.7512	-2.3193	-6.7749	10.2539	4.3286	6.4270	176.7480	37.6200	32	0	0 
02102.815	-0.4421	0.0791	0.7512	-2.3193	-6.7749	10.2539	4.3286	6.4545	176.8030	37.6200	31	0	0 
02102.839	-0.3857	0.1135	1.0171	-4.6387	-25.9399	13.5498	4.3176	6.3556	176.8634	37.6200	30	0	0 
02102.839	-0.3857	0.1135	1.0171	-4.6387	-25.9399	13.5498	4.3066	6.2567	176.9238	37.6200	29	0	0 
02102.841	-0.3857	0.1135	1.0171	-4.6387	-25.9399	13.5498	4.3011	6.1633	176.9843	37.6600	28	0	0 
02102.841	-0.3857	0.1135	1.0171	-4.6387	-25.9399	13.5498	4.2902	6.0645	177.0447	37.6600	28	0	0 
02102.841	-0.3857	0.1135	1.0171	-4.6387	-25.9399	13.5498	4.2792	5.9656	177.0996	37.6800	28	0	0 
02102.851	-0.3857	0.1135	1.0171	-4.6387	-25.9399	13.5498	4.2682	5.8722	177.1600	37.6800	28	0	0 
02102.856	-0.3857	0.1135	1.0171	-4.6387	-25.9399	13.5498	4.2627	5.7733	177.2205	37.6800	26	0	0 
02102.856	-0.3857	0.1135	1.0171	-4.6387	-25.9399	13.5498	4.2517	5.6799	177.2809	37.6500	24	0	0 
02102.868	-0.4019	0.1428	1.1489	-6.1646	-39.0625	16.7847	4.2352	5.5096	177.3523	37.6500	25	0	0 
02102.871	-0.4019	0.1428	1.1489	-6.1646	-39.0625	16.7847	4.2242	5.3448	177.4237	37.6300	26	0	0 
02102.871	-0.4019	0.1428	1.1489	-6.1646	-39.0625	16.7847	4.2078	5.1801	177.4896	37.6300	25	0	0 
02102.873	-0.4019	0.1428	1.1489	-6.1646	-39.0625	16.7847	4.1913	5.0153	177.5610	37.6200	25	0	0 
02102.882	-0.4019	0.1428	1.1489	-6.1646	-39.0625	16.7847	4.1803	4.8505	177.6324	37.6200	23	0	0 
02102.890	-0.4019	0.1428	1.1489	-6.1646	-39.0625	16.7847	4.1638	4.6857	177.6984	37.7700	22	0	0 
02102.890	-0.4019	0.1428	1.1489	-6.1646	-39.0625	16.7847	4.1473	4.5209	177.7698	37.7700	22	0	0 
02102.897	-0.4019	0.1428	1.1489	-6.1646	-39.0625	16.7847	4.1309	4.3616	177.8357	37.7600	21	0	0 
02102.910	-0.4482	0.1619	1.1812	-6.5918	-39.9780	19.4092	4.1199	4.1968	177.9181	37.7600	21	0	0 
02102.910	-0.4482	0.1619	1.1812	-6.5918	-39.9780	19.4092	4.1034	4.0320	178.0005	37.7000	20	0	0 
02102.912	-0.4482	0.1619	1.1812	-6.5918	-39.9780	19.4092	4.0924	3.8672	178.0829	37.7000	19	0	0 
02102.919	-0.4482	0.1619	1.1812	-6.5918	-39.9780	19.4092	4.0759	3.7079	178.1598	37.7200	19	0	0 
02102.919	-0.4482	0.1619	1.1812	-6.5918	-39.9780	19.4092	4.0594	3.5431	178.2422	37.7200	19	0	0 
02102.926	-0.4482	0.1619	1.1812	-6.5918	-39.9780	19.4092	4.0430	3.3838	178.3191	37.7200	19	0	0 
02102.936	-0.4482	0.1619	1.1812	-6.5918	-39.9780	19.4092	4.0320	3.2245	178.4015	37.6700	19	0	0 
02102.936	-0.4482	0.1619	1.1812	-6.5918	-39.9780	19.4092	4.0155	3.0652	178.4784	37.6700	19	0	0 
02102.942	-0.4875	0.1653	1.1506	-5.8594	-30.7617	21.2402	4.0045	2.9553	178.5718	37.7100	18	0	0 
02102.948	-0.4875	0.1653	1.1506	-5.8594	-30.7617	21.2402	3.9935	2.8455	178.6652	37.7100	18	0	0 
02102.948	-0.4875	0.1653	1.1506	-5.8594	-30.7617	21.2402	3.9825	2.7411	178.7531	37.6700	18	0	0 
02102.955	-0.4875	0.1653	1.1506	-5.8594	-30.7617	21.2402	3.9716	2.6312	178.8464	37.6700	17	0	0 
02102.967	-0.4875	0.1653	1.1506	-5.8594	-30.7617	21.2402	3.9606	2.5269	178.9343	37.6500	18	0	0 
02102.973	-0.4875	0.1653	1.1506	-5.8594	-30.7617	21.2402	3.9496	2.4170	179.0277	37.6500	18	0	0 
02102.973	-0.4875	0.1653	1.1506	-5.8594	-30.7617	21.2402	3.9386	2.3126	179.1156	37.7000	18	0	0 
02102.976	-0.4875	0.1653	1.1506	-5.8594	-30.7617	21.2402	3.9276	2.2083	179.2035	37.7000	18	0	0 
02102.986	-0.5059	0.1604	1.0964	-4.2725	-17.8223	22.2168	3.9276	2.1698	179.3024	37.7400	17	0	0 
02102.986	-0.5059	0.1604	1.0964	-4.2725	-17.8223	22.2168	3.9276	2.1368	179.4012	37.7400	15	0	0 
02102.990	-0.5059	0.1604	1.0964	-4.2725	-17.8223	22.2168	3.9221	2.0984	179.5001	37.7300	14	0	0 
02103.001	-0.5059	0.1604	1.0964	-4.2725	-17.8223	22.2168	3.9221	2.0599	179.5990	37.7300	13	0	0 
02103.001	-0.5059	0.1604	1.0964	-4.2725	-17.8223	22.2168	3.9166	2.0270	179.6924	37.7000	13	0	0 
02103.006	-0.5059	0.1604	1.0964	-4.2725	-17.8223	22.2168	3.9166	1.9885	179.7913	37.7000	13	0	0 
02103.015	-0.5059	0.1604	1.0964	-4.2725	-17.8223	22.2168	3.9166	1.9556	179.8846	37.7000	12	0	0 
02103.015	-0.5059	0.1604	1.0964	-4.2725	-17.8223	22.2168	3.9111	1.9171	179.9835	37.6900	12	0	0 
02103.021	-0.5090	0.1533	1.0430	-2.6245	-6.2866	22.3999	3.9166	1.9446	-179.9121	37.6900	11	0	0 
02103.033	-0.5090	0.1533	1.0430	-2.6245	-6.2866	22.3999	3.9276	1.9666	-179.8077	37.6500	11	0	0 
02103.033	-0.5090	0.1533	1.0430	-2.6245	-6.2866	22.3999	3.9331	1.9940	-179.7089	37.6500	10	0	0 
02103.035	-0.5090	0.1533	1.0430	-2.6245	-6.2866	22.3999	3.9386	2.0215	-179.6100	37.6900	9	0	0 
02103.065	-0.5090	0.1533	1.0430	-2.6245	-6.2866	22.3999	3.9441	2.0435	-179.5111	37.6900	9	0	0 
02103.067	-0.5090	0.1533	1.0430	-2.6245	-6.2866	22.3999	3.9496	2.0709	-179.4122	37.7200	9	0	0 
02103.067	-0.5090	0.1533	1.0430	-2.6245	-6.2866	22.3999	3.9606	2.0929	-179.3134	37.7200	10	0	0 
02103.067	-0.4709	0.1396	1.0034	-1.1597	1.5259	21.6064	3.9716	2.1533	-179.2145	37.6200	10	0	0 
02103.067	-0.4709	0.1396	1.0034	-1.1597	1.5259	21.6064	3.9825	2.2192	-179.1156	37.6200	10	0	0 
02103.067	-0.4709	0.1396	1.0034	-1.1597	1.5259	21.6064	3.9990	2.2797	-179.0167	37.7000	10	0	0 
02103.069	-0.4709	0.1396	1.0034	-1.1597	1.5259	21.6064	4.0100	2.3401	-178.9233	37.7000	10	0	0 
02103.091	-0.4709	0.1396	1.0034	-1.1597	1.5259	21.6064	4.0265	2.4005	-178.8245	37.6800	11	0	0 
02103.091	-0.4709	0.1396	1.0034	-1.1597	1.5259	21.6064	4.0375	2.4609	-178.7311	37.6800	11	0	0 
02103.094	-0.4709	0.1396	1.0034	-1.1597	1.5259	21.6064	4.0540	2.5214	-178.6322	37.7000	11	0	0 
02103.096	-0.4709	0.1396	1.0034	-1.1597	1.5259	21.6064	4.0649	2.5763	-178.5388	37.7000	11	0	0 
02103.096	-0.3933	0.1184	0.9810	-0.1831	5.3101	19.4702	4.0814	2.6477	-178.4509	37.7000	11	0	0 
02103.100	-0.3933	0.1184	0.9810	-0.1831	5.3101	19.4702	4.0979	2.7191	-178.3630	37.6300	12	0	0 
02103.113	-0.3933	0.1184	0.9810	-0.1831	5.3101	19.4702	4.1089	2.7850	-178.2751	37.6300	12	0	0 
02103.113	-0.3933	0.1184	0.9810	-0.1831	5.3101	19.4702	4.1254	2.8564	-178.1927	37.6500	12	0	0 
02103.119	-0.3933	0.1184	0.9810	-0.1831	5.3101	19.4702	4.1418	2.9279	-178.1049	37.6500	11	0	0 
02103.123	-0.3933	0.1184	0.9810	-0.1831	5.3101	19.4702	4.1583	2.9938	-178.0170	37.7700	10	0	0 
02103.131	-0.3933	0.1184	0.9810	-0.1831	5.3101	19.4702	4.1748	3.0597	-177.9346	37.7700	9	0	0 
02103.131	-0.3933	0.1184	0.9810	-0.1831	5.3101	19.4702	4.1913	3.1311	-177.8467	37.6500	9	0	0 
02103.135	-0.2837	0.0879	0.9736	0.3662	5.9814	15.8081	4.2023	3.1860	-177.7808	37.6500	10	0	0 
02103.154	-0.2837	0.0879	0.9736	0.3662	5.9814	15.8081	4.2133	3.2410	-177.7094	37.6400	11	0	0 
02103.154	-0.2837	0.0879	0.9736	0.3662	5.9814	15.8081	4.2242	3.2959	-177.6434	37.6400	10	0	0 
02103.156	-0.2837	0.0879	0.9736	0.3662	5.9814	15.8081	4.2352	3.3563	-177.5775	37.6100	10	0	0 
02103.160	-0.2837	0.0879	0.9736	0.3662	5.9814	15.8081	4.2517	3.4113	-177.5116	37.6100	9	0	0 
02103.160	-0.2837	0.0879	0.9736	0.3662	5.9814	15.8081	4.2627	3.4662	-177.4402	37.6500	9	0	0 
02103.169	-0.2837	0.0879	0.9736	0.3662	5.9814	15.8081	4.2737	3.5211	-177.3743	37.6500	9	0	0 
02103.175	-0.2837	0.0879	0.9736	0.3662	5.9814	15.8081	4.2847	3.5760	-177.3083	37.7400	9	0	0 
02103.185	-0.1560	0.0520	0.9761	0.6104	4.6997	11.1694	4.2902	3.6035	-177.2644	37.7400	8	0	0 
02103.185	-0.1560	0.0520	0.9761	0.6104	4.6997	11.1694	4.2957	3.6310	-177.2260	37.7400	8	0	0 
02103.243	-0.1560	0.0520	0.9761	0.6104	4.6997	11.1694	4.3011	3.6639	-177.1820	37.7100	8	0	0 
02103.243	-0.1560	0.0520	0.9761	0.6104	4.6997	11.1694	4.3066	3.6914	-177.1381	37.7100	8	0	0 
02103.246	-0.1560	0.0520	0.9761	0.6104	4.6997	11.1694	4.3121	3.7189	-177.0941	37.6800	9	0	0 
02103.246	-0.1560	0.0520	0.9761	0.6104	4.6997	11.1694	4.3176	3.7463	-177.0557	37.6800	10	0	0 
02103.246	-0.1560	0.0520	0.9761	0.6104	4.6997	11.1694	4.3176	3.7793	-177.0117	37.6300	10	0	0 
02103.246	-0.1560	0.0520	0.9761	0.6104	4.6997	11.1694	4.3231	3.8068	-176.9678	37.6300	10	0	0 
02103.246	-0.0535	0.0186	0.9832	0.6714	2.8076	6.2256	4.3231	3.8068	-176.9513	37.7400	10	0	0 
02103.246	-0.0535	0.0186	0.9832	0.6714	2.8076	6.2256	4.3176	3.8123	-176.9348	37.7400	10	0	0 
02103.246	-0.0535	0.0186	0.9832	0.6714	2.8076	6.2256	4.3176	3.8177	-176.9183	37.6500	10	0	0 
02103.246	-0.0535	0.0186	0.9832	0.6714	2.8076	6.2256	4.3121	3.8177	-176.9073	37.6500	10	0	0 
02103.248	-0.0535	0.0186	0.9832	0.6714	2.8076	6.2256	4.3121	3.8232	-176.8909	37.6700	9	0	0 
02103.248	-0.0535	0.0186	0.9832	0.6714	2.8076	6.2256	4.3066	3.8232	-176.8744	37.6700	9	0	0 
02103.251	-0.0535	0.0186	0.9832	0.6714	2.8076	6.2256	4.3011	3.8287	-176.8579	37.6600	9	0	0 
02103.253	-0.0535	0.0186	0.9832	0.6714	2.8076	6.2256	4.3011	3.8342	-176.8414	37.6600	9	0	0 
02103.253	0.0103	-0.0044	0.9907	0.4883	1.0376	2.0752	4.2902	3.8177	-176.8469	37.6500	9	0	0 
02103.263	0.0103	-0.0044	0.9907	0.4883	1.0376	2.0752	4.2792	3.8013	-176.8524	37.6500	9	0	0 
02103.269	0.0103	-0.0044	0.9907	0.4883	1.0376	2.0752	4.2737	3.7903	-176.8579	37.6500	8	0	0 
02103.273	0.0103	-0.0044	0.9907	0.4883	1.0376	2.0752	4.2627	3.7738	-176.8634	37.7500	8	0	0 
02103.273	0.0103	-0.0044	0.9907	0.4883	1.0376	2.0752	4.2517	3.7573	-176.8744	37.7500	7	0	0 
02103.288	0.0103	-0.0044	0.9907	0.4883	1.0376	2.0752	4.2407	3.7463	-176.8799	37.7100	7	0	0 
02103.294	0.0103	-0.0044	0.9907	0.4883	1.0376	2.0752	4.2297	3.7299	-176.8854	37.7100	6	0	0 
02103.294	0.0103	-0.0044	0.9907	0.4883	1.0376	2.0752	4.2242	3.7134	-176.8909	37.7000	5	0	0 
02103.297	0.0374	-0.0166	0.9968	0.3052	-0.1221	-0.5493	4.2078	3.6914	-176.9073	37.7000	5	0	0 
02103.306	0.0374	-0.0166	0.9968	0.3052	-0.1221	-0.5493	4.1968	3.6694	-176.9293	37.6100	5	0	0 
02103.306	0.0374	-0.0166	0.9968	0.3052	-0.1221	-0.5493	4.1803	3.6420	-176.9513	37.6100	6	0	0 
02103.317	0.0374	-0.0166	0.9968	0.3052	-0.1221	-0.5493	4.1693	3.6200	-176.9678	37.7000	7	0	0 
02103.320	0.0374	-0.0166	0.9968	0.3052	-0.1221	-0.5493	4.1528	3.5980	-176.9897	37.7000	8	0	0 
02103.320	0.0374	-0.0166	0.9968	0.3052	-0.1221	-0.5493	4.1418	3.5706	-177.0062	37.6500	8	0	0 
02103.328	0.0374	-0.0166	0.9968	0.3052	-0.1221	-0.5493	4.1254	3.5486	-177.0282	37.6500	9	0	0 
02103.335	0.0374	-0.0166	0.9968	0.3052	-0.1221	-0.5493	4.1144	3.5266	-177.0447	37.7400	9	0	0 
02103.341	0.0383	-0.0198	1.0005	0.0610	-0.7324	-1.8921	4.0979	3.4991	-177.0721	37.7400	9	0	0 
02103.341	0.0383	-0.0198	1.0005	0.0610	-0.7324	-1.8921	4.0814	3.4717	-177.0996	37.7400	8	0	0 
02103.350	0.0383	-0.0198	1.0005	0.0610	-0.7324	-1.8921	4.0649	3.4497	-177.1271	37.6100	7	0	0 
02103.356	0.0383	-0.0198	1.0005	0.0610	-0.7324	-1.8921	4.0540	3.4222	-177.1490	37.6100	7	0	0 
02103.356	0.0383	-0.0198	1.0005	0.0610	-0.7324	-1.8921	4.0375	3.3948	-177.1765	37.6800	7	0	0 
02103.365	0.0383	-0.0198	1.0005	0.0610	-0.7324	-1.8921	4.0210	3.3728	-177.2040	37.6800	8	0	0 
02103.367	0.0383	-0.0198	1.0005	0.0610	-0.7324	-1.8921	4.0045	3.3453	-177.2314	37.7500	8	0	0 
02103.367	0.0383	-0.0198	1.0005	0.0610	-0.7324	-1.8921	3.9880	3.3179	-177.2534	37.7500	8	0	0 
02103.381	0.0251	-0.0176	1.0022	0.0000	-0.8545	-2.0752	3.9771	3.2959	-177.2809	37.6600	9	0	0 
02103.383	0.0251	-0.0176	1.0022	0.0000	-0.8545	-2.0752	3.9606	3.2739	-177.3083	37.6600	8	0	0 
02103.383	0.0251	-0.0176	1.0022	0.0000	-0.8545	-2.0752	3.9441	3.2465	-177.3358	37.7200	8	0	0 
02103.392	0.0251	-0.0176	1.0022	0.0000	-0.8545	-2.0752	3.9331	3.2245	-177.3578	37.7200	7	0	0 
02103.403	0.0251	-0.0176	1.0022	0.0000	-0.8545	-2.0752	3.9166	3.2025	-177.3853	37.7500	7	0	0 
02103.403	0.0251	-0.0176	1.0022	0.0000	-0.8545	-2.0752	3.9001	3.1805	-177.4127	37.7500	6	0	0 
02103.408	0.0251	-0.0176	1.0022	0.0000	-0.8545	-2.0752	3.8892	3.1531	-177.4402	37.7000	6	0	0 
02103.415	0.0251	-0.0176	1.0022	0.0000	-0.8545	-2.0752	3.8727	3.1311	-177.4622	37.7000	7	0	0 
02103.421	0.0076	-0.0129	1.0022	-0.0610	-0.6714	-1.7090	3.8562	3.1091	-177.4896	37.6400	9	0	0 
02103.421	0.0076	-0.0129	1.0022	-0.0610	-0.6714	-1.7090	3.8452	3.0927	-177.5116	37.6400	9	0	0 
02103.431	0.0076	-0.0129	1.0022	-0.0610	-0.6714	-1.7090	3.8287	3.0707	-177.5336	37.6400	10	0	0 
02103.437	0.0076	-0.0129	1.0022	-0.0610	-0.6714	-1.7090	3.8177	3.0542	-177.5555	37.6900	9	0	0 
02103.437	0.0076	-0.0129	1.0022	-0.0610	-0.6714	-1.7090	3.8013	3.0322	-177.5830	37.6900	9	0	0 
02103.446	0.0076	-0.0129	1.0022	-0.0610	-0.6714	-1.7090	3.7903	3.0157	-177.6050	37.6300	9	0	0 
02103.473	0.0076	-0.0129	1.0022	-0.0610	-0.6714	-1.7090	3.7738	2.9938	-177.6270	37.6300	9	0	0 
02103.473	0.0076	-0.0129	1.0022	-0.0610	-0.6714	-1.7090	3.7628	2.9773	-177.6489	37.7000	9	0	0 
02103.475	-0.0078	-0.0083	1.0015	-0.1221	-0.4272	-1.0376	3.7518	2.9608	-177.6709	37.7000	9	0	0 
02103.475	-0.0078	-0.0083	1.0015	-0.1221	-0.4272	-1.0376	3.7354	2.9443	-177.6874	37.6700	9	0	0 
02103.475	-0.0078	-0.0083	1.0015	-0.1221	-0.4272	-1.0376	3.7244	2.9279	-177.7094	37.6700	9	0	0 
02103.475	-0.0078	-0.0083	1.0015	-0.1221	-0.4272	-1.0376	3.7134	2.9169	-177.7313	37.7100	10	0	0 
02103.484	-0.0078	-0.0083	1.0015	-0.1221	-0.4272	-1.0376	3.7024	2.9004	-177.7478	37.7100	10	0	0 
02103.484	-0.0078	-0.0083	1.0015	-0.1221	-0.4272	-1.0376	3.6859	2.8839	-177.7698	37.6900	9	0	0 
02103.486	-0.0078	-0.0083	1.0015	-0.1221	-0.4272	-1.0376	3.6749	2.8674	-177.7863	37.6900	8	0	0 
02103.498	-0.0078	-0.0083	1.0015	-0.1221	-0.4272	-1.0376	3.6639	2.8510	-177.8027	37.6300	7	0	0 
02103.504	-0.0181	-0.0046	1.0005	-0.0610	-0.1831	-0.4272	3.6530	2.8400	-177.8192	37.6300	8	0	0 
02103.504	-0.0181	-0.0046	1.0005	-0.0610	-0.1831	-0.4272	3.6420	2.8290	-177.8357	37.7200	8	0	0 
02103.508	-0.0181	-0.0046	1.0005	-0.0610	-0.1831	-0.4272	3.6310	2.8180	-177.8522	37.7200	8	0	0 
02103.524	-0.0181	-0.0046	1.0005	-0.0610	-0.1831	-0.4272	3.6200	2.8015	-177.8687	37.7200	8	0	0 
02103.524	-0.0181	-0.0046	1.0005	-0.0610	-0.1831	-0.4272	3.6090	2.7905	-177.8851	37.7500	7	0	0 
02103.526	-0.0181	-0.0046	1.0005	-0.0610	-0.1831	-0.4272	3.5980	2.7795	-177.9016	37.7500	7	0	0 
02103.530	-0.0181	-0.0046	1.0005	-0.0610	-0.1831	-0.4272	3.5870	2.7686	-177.9126	37.7000	8	0	0 
02103.530	-0.0181	-0.0046	1.0005	-0.0610	-0.1831	-0.4272	3.5760	2.7576	-177.9291	37.7000	8	0	0 
02103.544	-0.0232	-0.0027	0.9995	-0.0610	0.0000	0.0000	3.5651	2.7466	-177.9456	37.6800	7	0	0 
02103.546	-0.0232	-0.0027	0.9995	-0.0610	0.0000	0.0000	3.5541	2.7356	-177.9565	37.6800	7	0	0 
02103.546	-0.0232	-0.0027	0.9995	-0.0610	0.0000	0.0000	3.5431	2.7246	-177.9675	37.6500	7	0	0 
02103.555	-0.0232	-0.0027	0.9995	-0.0610	0.0000	0.0000	3.5321	2.7136	-177.9840	37.6500	7	0	0 
02103.563	-0.0232	-0.0027	0.9995	-0.0610	0.0000	0.0000	3.5211	2.7026	-177.9950	37.6900	7	0	0 
02103.563	-0.0232	-0.0027	0.9995	-0.0610	0.0000	0.0000	3.5156	2.6917	-178.0060	37.6900	6	0	0 
02103.571	-0.0232	-0.0027	0.9995	-0.0610	0.0000	0.0000	3.5046	2.6807	-178.0225	37.7400	6	0	0 
02103.576	-0.0232	-0.0027	0.9995	-0.0610	0.0000	0.0000	3.4937	2.6697	-178.0334	37.7400	6	0	0 
02103.582	-0.0242	-0.0017	0.9990	-0.0610	0.0610	0.1831	3.4827	2.6642	-178.0444	37.6200	6	0	0 
02103.582	-0.0242	-0.0017	0.9990	-0.0610	0.0610	0.1831	3.4717	2.6532	-178.0609	37.6200	6	0	0 
02103.589	-0.0242	-0.0017	0.9990	-0.0610	0.0610	0.1831	3.4662	2.6422	-178.0719	37.6500	8	0	0 
02103.596	-0.0242	-0.0017	0.9990	-0.0610	0.0610	0.1831	3.4552	2.6312	-178.0829	37.6500	9	0	0 
02103.596	-0.0242	-0.0017	0.9990	-0.0610	0.0610	0.1831	3.4442	2.6257	-178.0939	37.6500	8	0	0 
02103.608	-0.0242	-0.0017	0.9990	-0.0610	0.0610	0.1831	3.4332	2.6147	-178.1049	37.6400	8	0	0 
02103.610	-0.0242	-0.0017	0.9990	-0.0610	0.0610	0.1831	3.4222	2.6038	-178.1158	37.6400	7	0	0 
02103.610	-0.0242	-0.0017	0.9990	-0.0610	0.0610	0.1831	3.4167	2.5928	-178.1268	37.7000	6	0	0 
02103.618	-0.0229	-0.0020	0.9988	0.0000	0.1221	0.2441	3.4058	2.5818	-178.1378	37.7000	7	0	0 
02103.626	-0.0229	-0.0020	0.9988	0.0000	0.1221	0.2441	3.3948	2.5763	-178.1488	37.6700	8	0	0 
02103.626	-0.0229	-0.0020	0.9988	0.0000	0.1221	0.2441	3.3893	2.5653	-178.1598	37.6700	8	0	0 
02103.652	-0.0229	-0.0020	0.9988	0.0000	0.1221	0.2441	3.3783	2.5543	-178.1708	37.6500	8	0	0 
02103.654	-0.0229	-0.0020	0.9988	0.0000	0.1221	0.2441	3.3673	2.5488	-178.1873	37.6500	9	0	0 
02103.654	-0.0229	-0.0020	0.9988	0.0000	0.1221	0.2441	3.3618	2.5378	-178.1982	37.6500	10	0	0 
02103.654	-0.0229	-0.0020	0.9988	0.0000	0.1221	0.2441	3.3508	2.5269	-178.2092	37.6500	10	0	0 
02103.656	-0.0229	-0.0020	0.9988	0.0000	0.1221	0.2441	3.3398	2.5159	-178.2202	37.7000	10	0	0 
02103.656	-0.0205	-0.0024	0.9985	0.0000	0.1221	0.2441	3.3344	2.5104	-178.2312	37.7000	11	0	0 
02103.658	-0.0205	-0.0024	0.9985	0.0000	0.1221	0.2441	3.3234	2.4994	-178.2422	37.6500	12	0	0 
02103.672	-0.0205	-0.0024	0.9985	0.0000	0.1221	0.2441	3.3124	2.4884	-178.2532	37.6500	12	0	0 
02103.675	-0.0205	-0.0024	0.9985	0.0000	0.1221	0.2441	3.3069	2.4774	-178.2642	37.6500	12	0	0 
02103.675	-0.0205	-0.0024	0.9985	0.0000	0.1221	0.2441	3.2959	2.4719	-178.2751	37.6500	12	0	0 
02103.685	-0.0205	-0.0024	0.9985	0.0000	0.1221	0.2441	3.2849	2.4609	-178.2861	37.6500	12	0	0 
02103.691	-0.0205	-0.0024	0.9985	0.0000	0.1221	0.2441	3.2794	2.4500	-178.2916	37.6700	12	0	0 
02103.691	-0.0205	-0.0024	0.9985	0.0000	0.1221	0.2441	3.2684	2.4390	-178.3026	37.6700	12	0	0 
02103.700	-0.0183	-0.0029	0.9983	0.0000	0.0610	0.1221	3.2574	2.4335	-178.3191	37.6500	13	0	0 
02103.714	-0.0183	-0.0029	0.9983	0.0000	0.0610	0.1221	3.2520	2.4225	-178.3301	37.6500	13	0	0 
02103.714	-0.0183	-0.0029	0.9983	0.0000	0.0610	0.1221	3.2410	2.4115	-178.3411	37.7000	13	0	0 
02103.727	-0.0183	-0.0029	0.9983	0.0000	0.0610	0.1221	3.2300	2.4005	-178.3521	37.7000	12	0	0 
02103.731	-0.0183	-0.0029	0.9983	0.0000	0.0610	0.1221	3.2245	2.3895	-178.3630	37.6400	11	0	0 
02103.731	-0.0183	-0.0029	0.9983	0.0000	0.0610	0.1221	3.2135	2.3785	-178.3740	37.6400	10	0	0 
02103.735	-0.0183	-0.0029	0.9983	0.0000	0.0610	0.1221	3.2025	2.3676	-178.3850	37.7100	9	0	0 
02103.737	-0.0183	-0.0029	0.9983	0.0000	0.0610	0.1221	3.1970	2.3621	-178.3960	37.7100	9	0	0 
02103.744	-0.0168	-0.0034	0.9980	0.0000	0.0000	0.0610	3.1860	2.3511	-178.4070	37.6100	10	0	0 
02103.744	-0.0168	-0.0034	0.9980	0.0000	0.0000	0.0610	3.1805	2.3401	-178.4180	37.6100	10	0	0 
02103.747	-0.0168	-0.0034	0.9980	0.0000	0.0000	0.0610	3.1696	2.3291	-178.4290	37.6500	11	0	0 
02103.757	-0.0168	-0.0034	0.9980	0.0000	0.0000	0.0610	3.1586	2.3181	-178.4399	37.6500	11	0	0 
02103.757	-0.0168	-0.0034	0.9980	0.0000	0.0000	0.0610	3.1531	2.3071	-178.4509	37.6500	11	0	0 
02103.763	-0.0168	-0.0034	0.9980	0.0000	0.0000	0.0610	3.1421	2.2961	-178.4619	37.7200	10	0	0 
02103.771	-0.0168	-0.0034	0.9980	0.0000	0.0000	0.0610	3.1311	2.2852	-178.4729	37.7200	9	0	0 
02103.771	-0.0168	-0.0034	0.9980	0.0000	0.0000	0.0610	3.1256	2.2797	-178.4839	37.6700	9	0	0 
02103.778	-0.0161	-0.0037	0.9978	0.0000	0.0000	0.0000	3.1146	2.2687	-178.4949	37.6700	8	0	0 
02103.787	-0.0161	-0.0037	0.9978	0.0000	0.0000	0.0000	3.1091	2.2577	-178.5114	37.7000	8	0	0 
02103.787	-0.0161	-0.0037	0.9978	0.0000	0.0000	0.0000	3.0981	2.2467	-178.5223	37.7000	7	0	0 
02103.791	-0.0161	-0.0037	0.9978	0.0000	0.0000	0.0000	3.0872	2.2357	-178.5333	37.6900	7	0	0 
02103.801	-0.0161	-0.0037	0.9978	0.0000	0.0000	0.0000	3.0817	2.2247	-178.5443	37.6900	6	0	0 
02103.801	-0.0161	-0.0037	0.9978	0.0000	0.0000	0.0000	3.0707	2.2137	-178.5553	37.6200	5	0	0 
02103.813	-0.0161	-0.0037	0.9978	0.0000	0.0000	0.0000	3.0652	2.2028	-178.5663	37.6200	4	0	0 
02103.815	-0.0161	-0.0037	0.9978	0.0000	0.0000	0.0000	3.0542	2.1973	-178.5773	37.6800	5	0	0 
02103.815	-0.0159	-0.0037	0.9978	0.0000	0.0000	0.0000	3.0487	2.1863	-178.5883	37.6800	5	0	0 
02103.821	-0.0159	-0.0037	0.9978	0.0000	0.0000	0.0000	3.0377	2.1753	-178.5992	37.6700	4	0	0 
02103.851	-0.0159	-0.0037	0.9978	0.0000	0.0000	0.0000	3.0267	2.1643	-178.6102	37.6700	4	0	0 
02103.880	-0.0159	-0.0037	0.9978	0.0000	0.0000	0.0000	3.0212	2.1533	-178.6212	37.6300	4	0	0 
02103.880	-0.0159	-0.0037	0.9978	0.0000	0.0000	0.0000	3.0103	2.1423	-178.6322	37.6300	3	0	0 
02103.882	-0.0159	-0.0037	0.9978	0.0000	0.0000	0.0000	3.0048	2.1368	-178.6432	37.6300	3	0	0 
02103.882	-0.0159	-0.0037	0.9978	0.0000	0.0000	0.0000	2.9938	2.1259	-178.6542	37.6900	3	0	0 
02103.882	-0.0159	-0.0037	0.9978	0.0000	0.0000	0.0000	2.9883	2.1149	-178.6652	37.6900	5	0	0 
02103.882	-0.0159	-0.0037	0.9978	0.0000	0.0000	0.0000	2.9773	2.1039	-178.6761	37.7100	6	0	0 
02103.882	-0.0159	-0.0037	0.9978	0.0000	0.0000	0.0000	2.9718	2.0929	-178.6871	37.7100	7	0	0 
02103.882	-0.0159	-0.0037	0.9978	0.0000	0.0000	0.0000	2.9608	2.0874	-178.6981	37.7100	8	0	0 
02103.884	-0.0159	-0.0037	0.9978	0.0000	0.0000	0.0000	2.9553	2.0764	-178.7091	37.7100	8	0	0 
02103.886	-0.0159	-0.0037	0.9978	0.0000	0.0000	0.0000	2.9443	2.0654	-178.7201	37.6700	8	0	0 
02103.886	-0.0159	-0.0037	0.9978	0.0000	0.0000	0.0000	2.9388	2.0544	-178.7311	37.6700	8	0	0 
02103.888	-0.0159	-0.0037	0.9978	0.0000	0.0000	0.0000	2.9279	2.0435	-178.7421	37.6500	7	0	0 
02103.898	-0.0159	-0.0037	0.9978	0.0000	0.0000	0.0000	2.9224	2.0380	-178.7531	37.6500	7	0	0 
02103.909	-0.0161	-0.0037	0.9980	0.0000	0.0000	0.0000	2.9114	2.0270	-178.7640	37.6900	8	0	0 
02103.909	-0.0161	-0.0037	0.9980	0.0000	0.0000	0.0000	2.9059	2.0160	-178.7750	37.6900	7	0	0 
02103.911	-0.0161	-0.0037	0.9980	0.0000	0.0000	0.0000	2.8949	2.0050	-178.7805	37.5900	7	0	0 
02103.916	-0.0161	-0.0037	0.9980	0.0000	0.0000	0.0000	2.8894	1.9995	-178.7915	37.5900	7	0	0 
02103.916	-0.0161	-0.0037	0.9980	0.0000	0.0000	0.0000	2.8784	1.9885	-178.8025	37.7300	8	0	0 
02103.938	-0.0161	-0.0037	0.9980	0.0000	0.0000	0.0000	2.8729	1.9775	-178.8135	37.7300	7	0	0 
02103.943	-0.0161	-0.0037	0.9980	0.0000	0.0000	0.0000	2.8619	1.9666	-178.8245	37.7300	6	0	0 
02103.943	-0.0161	-0.0037	0.9980	0.0000	0.0000	0.0000	2.8564	1.9611	-178.8354	37.6600	7	0	0 
02103.955	-0.0164	-0.0034	0.9983	0.0000	0.0000	0.0000	2.8510	1.9501	-178.8464	37.6600	7	0	0 
02103.957	-0.0164	-0.0034	0.9983	0.0000	0.0000	0.0000	2.8400	1.9391	-178.8574	37.7300	7	0	0 
02103.957	-0.0164	-0.0034	0.9983	0.0000	0.0000	0.0000	2.8345	1.9281	-178.8684	37.7300	8	0	0 
02103.963	-0.0164	-0.0034	0.9983	0.0000	0.0000	0.0000	2.8235	1.9226	-178.8794	37.7100	7	0	0 
02103.967	-0.0164	-0.0034	0.9983	0.0000	0.0000	0.0000	2.8180	1.9116	-178.8849	37.7100	6	0	0 
02103.967	-0.0164	-0.0034	0.9983	0.0000	0.0000	0.0000	2.8070	1.9006	-178.8959	37.6500	6	0	0 
02103.970	-0.0164	-0.0034	0.9983	0.0000	0.0000	0.0000	2.8015	1.8951	-178.9069	37.6500	6	0	0 
02103.975	-0.0164	-0.0034	0.9983	0.0000	0.0000	0.0000	2.7960	1.8842	-178.9178	37.6600	6	0	0 
02103.975	-0.0166	-0.0037	0.9985	0.0000	0.0000	0.0000	2.7850	1.8732	-178.9288	37.6600	5	0	0 
02103.984	-0.0166	-0.0037	0.9985	0.0000	0.0000	0.0000	2.7795	1.8677	-178.9398	37.7300	5	0	0 
02103.996	-0.0166	-0.0037	0.9985	0.0000	0.0000	0.0000	2.7686	1.8567	-178.9453	37.7300	5	0	0 
02103.998	-0.0166	-0.0037	0.9985	0.0000	0.0000	0.0000	2.7631	1.8457	-178.9563	37.8200	6	0	0 
02103.998	-0.0166	-0.0037	0.9985	0.0000	0.0000	0.0000	2.7576	1.8402	-178.9673	37.8200	6	0	0 
02104.007	-0.0166	-0.0037	0.9985	0.0000	0.0000	0.0000	2.7466	1.8292	-178.9783	37.6200	7	0	0 
02104.018	-0.0166	-0.0037	0.9985	0.0000	0.0000	0.0000	2.7411	1.8182	-178.9893	37.6200	7	0	0 
02104.018	-0.0166	-0.0037	0.9985	0.0000	0.0000	0.0000	2.7301	1.8127	-179.0002	37.6200	8	0	0 
02104.021	-0.0166	-0.0037	0.9988	0.0000	0.0000	0.0000	2.7246	1.8018	-179.0057	37.5600	8	0	0 
02104.026	-0.0166	-0.0037	0.9988	0.0000	0.0000	0.0000	2.7191	1.7963	-179.0167	37.5600	8	0	0 
02104.026	-0.0166	-0.0037	0.9988	0.0000	0.0000	0.0000	2.7081	1.7853	-179.0277	37.6500	7	0	0 
02104.059	-0.0166	-0.0037	0.9988	0.0000	0.0000	0.0000	2.7026	1.7743	-179.0387	37.6500	7	0	0 
02104.061	-0.0166	-0.0037	0.9988	0.0000	0.0000	0.0000	2.6971	1.7688	-179.0442	37.6700	7	0	0 
02104.061	-0.0166	-0.0037	0.9988	0.0000	0.0000	0.0000	2.6862	1.7578	-179.0552	37.6700	8	0	0 
02104.061	-0.0166	-0.0037	0.9988	0.0000	0.0000	0.0000	2.6807	1.7468	-179.0662	37.6600	8	0	0 
02104.061	-0.0166	-0.0037	0.9988	0.0000	0.0000	0.0000	2.6752	1.7413	-179.0771	37.6600	9	0	0 
02104.061	-0.0166	-0.0039	0.9990	0.0000	0.0000	0.0000	2.6642	1.7303	-179.0826	37.7500	9	0	0 
02104.061	-0.0166	-0.0039	0.9990	0.0000	0.0000	0.0000	2.6587	1.7249	-179.0936	37.7500	9	0	0 
02104.075	-0.0166	-0.0039	0.9990	0.0000	0.0000	0.0000	2.6477	1.7139	-179.1046	37.7200	8	0	0 
02104.087	-0.0166	-0.0039	0.9990	0.0000	0.0000	0.0000	2.6422	1.7084	-179.1156	37.7200	7	0	0 
02104.087	-0.0166	-0.0039	0.9990	0.0000	0.0000	0.0000	2.6367	1.6974	-179.1211	37.6500	8	0	0 
02104.091	-0.0166	-0.0039	0.9990	0.0000	0.0000	0.0000	2.6312	1.6864	-179.1321	37.6500	9	0	0 
02104.095	-0.0166	-0.0039	0.9990	0.0000	0.0000	0.0000	2.6202	1.6809	-179.1431	37.6500	9	0	0 
02104.095	-0.0166	-0.0039	0.9990	0.0000	0.0000	0.0000	2.6147	1.6699	-179.1541	37.6800	9	0	0 
02104.097	-0.0166	-0.0034	0.9993	0.0000	0.0000	0.0000	2.6093	1.6644	-179.1595	37.6800	9	0	0 
02104.111	-0.0166	-0.0034	0.9993	0.0000	0.0000	0.0000	2.5983	1.6534	-179.1705	37.6400	9	0	0 
02104.111	-0.0166	-0.0034	0.9993	0.0000	0.0000	0.0000	2.5928	1.6479	-179.1815	37.6400	9	0	0 
02104.119	-0.0166	-0.0034	0.9993	0.0000	0.0000	0.0000	2.5873	1.6370	-179.1870	37.7000	10	0	0 
02104.121	-0.0166	-0.0034	0.9993	0.0000	0.0000	0.0000	2.5763	1.6315	-179.1980	37.7000	9	0	0 
02104.121	-0.0166	-0.0034	0.9993	0.0000	0.0000	0.0000	2.5708	1.6205	-179.2090	37.7200	7	0	0 
02104.137	-0.0166	-0.0034	0.9993	0.0000	0.0000	0.0000	2.5653	1.6095	-179.2145	37.7200	7	0	0 
02104.140	-0.0166	-0.0034	0.9993	0.0000	0.0000	0.0000	2.5598	1.6040	-179.2255	37.6900	7	0	0 
02104.140	-0.0166	-0.0034	0.9993	0.0000	0.0000	0.0000	2.5488	1.5930	-179.2365	37.6900	8	0	0 
02104.142	-0.0166	-0.0034	0.9993	0.0000	0.0000	0.0000	2.5433	1.5875	-179.2419	37.6700	8	0	0 
02104.150	-0.0166	-0.0034	0.9993	0.0000	0.0000	0.0000	2.5378	1.5765	-179.2529	37.6700	9	0	0 
02104.159	-0.0166	-0.0034	0.9993	0.0000	0.0000	0.0000	2.5323	1.5710	-179.2639	37.7200	9	0	0 
02104.159	-0.0166	-0.0034	0.9993	0.0000	0.0000	0.0000	2.5214	1.5601	-179.2694	37.7200	9	0	0 
02104.165	-0.0166	-0.0034	0.9993	0.0000	0.0000	0.0000	2.5159	1.5546	-179.2804	37.6600	9	0	0 
02104.171	-0.0166	-0.0034	0.9993	0.0000	0.0000	0.0000	2.5104	1.5436	-179.2914	37.6600	9	0	0 
02104.171	-0.0166	-0.0034	0.9993	0.0000	0.0000	0.0000	2.5049	1.5381	-179.2969	37.6600	8	0	0 
02104.177	-0.0166	-0.0032	0.9993	0.0000	0.0000	0.0000	2.4939	1.5271	-179.3079	37.6900	8	0	0 
02104.196	-0.0166	-0.0032	0.9993	0.0000	0.0000	0.0000	2.4884	1.5216	-179.3188	37.6900	7	0	0 
02104.196	-0.0166	-0.0032	0.9993	0.0000	0.0000	0.0000	2.4829	1.5106	-179.3243	37.6700	8	0	0 
02104.201	-0.0166	-0.0032	0.9993	0.0000	0.0000	0.0000	2.4774	1.5051	-179.3353	37.6700	9	0	0 
02104.203	-0.0166	-0.0032	0.9993	0.0000	0.0000	0.0000	2.4664	1.4941	-179.3408	37.7200	9	0	0 
02104.203	-0.0166	-0.0032	0.9993	0.0000	0.0000	0.0000	2.4609	1.4886	-179.3518	37.7200	10	0	0 
02104.207	-0.0166	-0.0032	0.9993	0.0000	0.0000	0.0000	2.4554	1.4832	-179.3628	37.6300	11	0	0 
02104.221	-0.0166	-0.0032	0.9993	0.0000	0.0000	0.0000	2.4500	1.4722	-179.3683	37.6300	10	0	0 
02104.221	-0.0166	-0.0032	0.9990	0.0000	0.0000	0.0000	2.4445	1.4667	-179.3793	37.6800	10	0	0 
02104.223	-0.0166	-0.0032	0.9990	0.0000	0.0000	0.0000	2.4390	1.4557	-179.3848	37.6800	10	0	0 
02104.252	-0.0166	-0.0032	0.9990	0.0000	0.0000	0.0000	2.4280	1.4502	-179.3958	37.7100	11	0	0 
02104.288	-0.0166	-0.0032	0.9990	0.0000	0.0000	0.0000	2.4225	1.4392	-179.4012	37.7100	10	0	0 
02104.288	-0.0166	-0.0032	0.9990	0.0000	0.0000	0.0000	2.4170	1.4337	-179.4122	37.7600	9	0	0 
02104.292	-0.0166	-0.0032	0.9990	0.0000	0.0000	0.0000	2.4115	1.4227	-179.4232	37.7600	9	0	0 
02104.292	-0.0166	-0.0032	0.9990	0.0000	0.0000	0.0000	2.4060	1.4172	-179.4287	37.7300	9	0	0 
02104.292	-0.0166	-0.0032	0.9990	0.0000	0.0000	0.0000	2.3950	1.4117	-179.4397	37.7300	9	0	0 
02104.292	-0.0166	-0.0032	0.9990	0.0000	0.0000	0.0000	2.3895	1.4008	-179.4452	37.7300	9	0	0 
02104.292	-0.0166	-0.0032	0.9990	0.0000	0.0000	0.0000	2.3840	1.3953	-179.4562	37.6900	9	0	0 
02104.292	-0.0166	-0.0032	0.9990	0.0000	0.0000	0.0000	2.3785	1.3843	-179.4617	37.6900	8	0	0 
02104.295	-0.0166	-0.0032	0.9990	0.0000	0.0000	0.0000	2.3730	1.3788	-179.4727	37.7000	7	0	0 
02104.303	-0.0166	-0.0032	0.9990	0.0000	0.0000	0.0000	2.3676	1.3678	-179.4781	37.7000	6	0	0 
02104.303	-0.0166	-0.0032	0.9990	0.0000	0.0000	0.0000	2.3621	1.3623	-179.4891	37.6800	5	0	0 
02104.311	-0.0166	-0.0032	0.9990	0.0000	0.0000	0.0000	2.3511	1.3568	-179.4946	37.6800	4	0	0 
02104.320	-0.0166	-0.0032	0.9990	0.0000	0.0000	0.0000	2.3456	1.3458	-179.5056	37.7100	4	0	0 
02104.320	-0.0166	-0.0032	0.9985	0.0000	0.0000	0.0000	2.3401	1.3403	-179.5111	37.7100	5	0	0 
02104.330	-0.0166	-0.0032	0.9985	0.0000	0.0000	0.0000	2.3346	1.3293	-179.5221	37.6200	5	0	0 
02104.356	-0.0166	-0.0032	0.9985	0.0000	0.0000	0.0000	2.3291	1.3239	-179.5276	37.6200	5	0	0 
02104.356	-0.0166	-0.0032	0.9985	0.0000	0.0000	0.0000	2.3236	1.3184	-179.5386	37.7100	5	0	0 
02104.362	-0.0166	-0.0032	0.9985	0.0000	0.0000	0.0000	2.3181	1.3074	-179.5441	37.7100	4	0	0 
02104.391	-0.0166	-0.0032	0.9985	0.0000	0.0000	0.0000	2.3071	1.3019	-179.5551	37.6500	5	0	0 
02104.391	-0.0166	-0.0032	0.9985	0.0000	0.0000	0.0000	2.3016	1.2964	-179.5605	37.6500	5	0	0 
02104.391	-0.0166	-0.0032	0.9985	0.0000	0.0000	0.0000	2.2961	1.2854	-179.5715	37.7100	5	0	0 
02104.399	-0.0166	-0.0032	0.9985	0.0000	0.0000	0.0000	2.2906	1.2799	-179.5770	37.7100	5	0	0 
02104.409	-0.0166	-0.0032	0.9985	0.0000	0.0000	0.0000	2.2852	1.2744	-179.5880	37.7100	5	0	0 
02104.409	-0.0166	-0.0032	0.9985	0.0000	0.0000	0.0000	2.2797	1.2634	-179.5935	37.6800	5	0	0 
02104.414	-0.0166	-0.0032	0.9985	0.0000	0.0000	0.0000	2.2742	1.2579	-179.6045	37.6800	5	0	0 
02104.430	-0.0166	-0.0032	0.9985	0.0000	0.0000	0.0000	2.2687	1.2524	-179.6100	37.7000	5	0	0 
02104.430	-0.0166	-0.0032	0.9985	0.0000	0.0000	0.0000	2.2632	1.2415	-179.6210	37.7000	5	0	0 
02104.465	-0.0166	-0.0032	0.9985	0.0000	0.0000	0.0000	2.2577	1.2360	-179.6265	37.7000	5	0	0 
02104.467	-0.0166	-0.0032	0.9985	0.0000	0.0000	0.0000	2.2467	1.2305	-179.6375	37.7000	5	0	0 
02104.496	-0.0166	-0.0034	0.9983	0.0000	0.0000	0.0000	2.2412	1.2195	-179.6429	37.6700	5	0	0 
02104.496	-0.0166	-0.0034	0.9983	0.0000	0.0000	0.0000	2.2357	1.2140	-179.6484	37.6700	5	0	0 
02104.505	-0.0166	-0.0034	0.9983	0.0000	0.0000	0.0000	2.2302	1.2085	-179.6594	37.6900	5	0	0 
02104.505	-0.0166	-0.0034	0.9983	0.0000	0.0000	0.0000	2.2247	1.1975	-179.6649	37.6900	6	0	0 
02104.514	-0.0166	-0.0034	0.9983	0.0000	0.0000	0.0000	2.2192	1.1920	-179.6759	37.6900	6	0	0 
02104.529	-0.0166	-0.0034	0.9983	0.0000	0.0000	0.0000	2.2137	1.1865	-179.6814	37.6900	7	0	0 
02104.543	-0.0166	-0.0034	0.9983	0.0000	0.0000	0.0000	2.2083	1.1755	-179.6869	37.6400	8	0	0 
02104.543	-0.0166	-0.0034	0.9983	0.0000	0.0000	0.0000	2.2028	1.1700	-179.6979	37.6400	8	0	0 
02104.549	-0.0166	-0.0037	0.9983	0.0000	0.0000	0.0000	2.1973	1.1646	-179.7034	37.6400	8	0	0 
02104.561	-0.0166	-0.0037	0.9983	0.0000	0.0000	0.0000	2.1918	1.1536	-179.7144	37.6300	8	0	0 
02104.561	-0.0166	-0.0037	0.9983	0.0000	0.0000	0.0000	2.1863	1.1481	-179.7198	37.6300	9	0	0 
02104.568	-0.0166	-0.0037	0.9983	0.0000	0.0000	0.0000	2.1808	1.1426	-179.7253	37.7000	9	0	0 
02104.581	-0.0166	-0.0037	0.9983	0.0000	0.0000	0.0000	2.1753	1.1371	-179.7363	37.7000	9	0	0 
02104.581	-0.0166	-0.0037	0.9983	0.0000	0.0000	0.0000	2.1698	1.1261	-179.7418	37.6900	9	0	0 
02104.589	-0.0166	-0.0037	0.9983	0.0000	0.0000	0.0000	2.1588	1.1206	-179.7528	37.6900	8	0	0 
02104.594	-0.0166	-0.0037	0.9983	0.0000	0.0000	0.0000	2.1533	1.1151	-179.7583	37.6400	8	0	0 
02104.607	-0.0166	-0.0037	0.9980	0.0000	0.0000	0.0000	2.1478	1.1041	-179.7638	37.6400	8	0	0 
02104.607	-0.0166	-0.0037	0.9980	0.0000	0.0000	0.0000	2.1423	1.0986	-179.7748	37.6700	7	0	0 
02104.612	-0.0166	-0.0037	0.9980	0.0000	0.0000	0.0000	2.1368	1.0931	-179.7803	37.6700	7	0	0 
02104.621	-0.0166	-0.0037	0.9980	0.0000	0.0000	0.0000	2.1313	1.0876	-179.7858	37.6500	6	0	0 
02104.621	-0.0166	-0.0037	0.9980	0.0000	0.0000	0.0000	2.1259	1.0767	-179.7968	37.6500	6	0	0 
02104.631	-0.0166	-0.0037	0.9980	0.0000	0.0000	0.0000	2.1204	1.0712	-179.8022	37.7000	7	0	0 
02104.645	-0.0166	-0.0037	0.9980	0.0000	0.0000	0.0000	2.1149	1.0657	-179.8077	37.7000	6	0	0 
02104.645	-0.0166	-0.0037	0.9980	0.0000	0.0000	0.0000	2.1094	1.0602	-179.8187	37.6600	6	0	0 
02104.657	-0.0166	-0.0037	0.9980	0.0000	0.0000	0.0000	2.1039	1.0492	-179.8242	37.6600	6	0	0 
02104.692	-0.0166	-0.0037	0.9980	0.0000	0.0000	0.0000	2.0984	1.0437	-179.8297	37.6600	7	0	0 
02104.692	-0.0166	-0.0037	0.9980	0.0000	0.0000	0.0000	2.0929	1.0382	-179.8407	37.7200	7	0	0 
02104.694	-0.0166	-0.0037	0.9980	0.0000	0.0000	0.0000	2.0874	1.0327	-179.8462	37.7200	6	0	0 
02104.694	-0.0166	-0.0037	0.9980	0.0000	0.0000	0.0000	2.0819	1.0272	-179.8517	37.7400	7	0	0 
02104.694	-0.0166	-0.0037	0.9980	0.0000	0.0000	0.0000	2.0764	1.0162	-179.8627	37.7400	7	0	0 
02104.697	-0.0166	-0.0037	0.9980	0.0000	0.0000	0.0000	2.0709	1.0107	-179.8682	37.7000	8	0	0 
02104.702	-0.0166	-0.0037	0.9980	0.0000	0.0000	0.0000	2.0654	1.0052	-179.8737	37.7000	8	0	0 
02104.715	-0.0166	-0.0034	0.9980	0.0000	0.0000	0.0000	2.0599	0.9998	-179.8846	37.6400	6	0	0 
02104.715	-0.0166	-0.0034	0.9980	0.0000	0.0000	0.0000	2.0544	0.9943	-179.8901	37.6400	5	0	0 
02104.715	-0.0166	-0.0034	0.9980	0.0000	0.0000	0.0000	2.0490	0.9833	-179.8956	37.6500	5	0	0 
02104.721	-0.0166	-0.0034	0.9980	0.0000	0.0000	0.0000	2.0435	0.9778	-179.9011	37.6500	5	0	0 
02104.721	-0.0166	-0.0034	0.9980	0.0000	0.0000	0.0000	2.0380	0.9723	-179.9121	37.7100	5	0	0 
02104.738	-0.0166	-0.0034	0.9980	0.0000	0.0000	0.0000	2.0325	0.9668	-179.9176	37.7100	6	0	0 
02104.738	-0.0166	-0.0034	0.9980	0.0000	0.0000	0.0000	2.0270	0.9613	-179.9231	37.7500	6	0	0 
02104.738	-0.0166	-0.0034	0.9980	0.0000	0.0000	0.0000	2.0215	0.9503	-179.9341	37.7500	7	0	0 
02104.751	-0.0166	-0.0034	0.9980	0.0000	0.0000	0.0000	2.0160	0.9448	-179.9396	37.6800	6	0	0 
02104.757	-0.0166	-0.0034	0.9980	0.0000	0.0000	0.0000	2.0160	0.9393	-179.9451	37.6800	6	0	0 
02104.757	-0.0166	-0.0034	0.9980	0.0000	0.0000	0.0000	2.0105	0.9338	-179.9506	37.6800	6	0	0 
02104.764	-0.0166	-0.0034	0.9980	0.0000	0.0000	0.0000	2.0050	0.9283	-179.9615	37.6800	6	0	0 
02104.764	-0.0166	-0.0034	0.9980	0.0000	0.0000	0.0000	1.9995	0.9174	-179.9670	37.6800	6	0	0 
02104.764	-0.0166	-0.0034	0.9980	0.0000	0.0000	0.0000	1.9940	0.9119	-179.9725	37.6200	6	0	0 
02104.769	-0.0166	-0.0034	0.9980	0.0000	0.0000	0.0000	1.9885	0.9064	-179.9780	37.6200	7	0	0 
02104.774	-0.0166	-0.0034	0.9980	0.0000	0.0000	0.0000	1.9830	0.9009	-179.9890	37.6400	8	0	0 
02104.777	-0.0168	-0.0034	0.9983	0.0000	0.0000	0.0000	1.9775	0.8954	-179.9945	37.6400	8	0	0 
02104.777	-0.0168	-0.0034	0.9983	0.0000	0.0000	0.0000	1.9720	0.8899	179.9945	37.6400	8	0	0 
02104.786	-0.0168	-0.0034	0.9983	0.0000	0.0000	0.0000	1.9666	0.8844	179.9890	37.6400	8	0	0 
02104.786	-0.0168	-0.0034	0.9983	0.0000	0.0000	0.0000	1.9611	0.8734	179.9780	37.6700	8	0	0 
02104.786	-0.0168	-0.0034	0.9983	0.0000	0.0000	0.0000	1.9556	0.8679	179.9725	37.6700	8	0	0 
02104.788	-0.0168	-0.0034	0.9983	0.0000	0.0000	0.0000	1.9501	0.8624	179.9670	37.6600	9	0	0 
02104.794	-0.0168	-0.0034	0.9983	0.0000	0.0000	0.0000	1.9446	0.8569	179.9615	37.6600	8	0	0 
02104.794	-0.0168	-0.0034	0.9983	0.0000	0.0000	0.0000	1.9391	0.8514	179.9561	37.6600	8	0	0 
02104.796	-0.0166	-0.0034	0.9983	0.0000	0.0000	0.0000	1.9391	0.8459	179.9451	37.6600	7	0	0 
02104.796	-0.0166	-0.0034	0.9983	0.0000	0.0000	0.0000	1.9336	0.8405	179.9396	37.6700	6	0	0 
02104.796	-0.0166	-0.0034	0.9983	0.0000	0.0000	0.0000	1.9281	0.8350	179.9341	37.6700	5	0	0 
02104.799	-0.0166	-0.0034	0.9983	0.0000	0.0000	0.0000	1.9226	0.8240	179.9286	37.6700	5	0	0 
02104.805	-0.0166	-0.0034	0.9983	0.0000	0.0000	0.0000	1.9171	0.8185	179.9231	37.6400	5	0	0 
02104.805	-0.0166	-0.0034	0.9983	0.0000	0.0000	0.0000	1.9116	0.8130	179.9121	37.6400	4	0	0 
02104.805	-0.0166	-0.0034	0.9983	0.0000	0.0000	0.0000	1.9061	0.8075	179.9066	37.6800	4	0	0 
02104.808	-0.0166	-0.0034	0.9983	0.0000	0.0000	0.0000	1.9006	0.8020	179.9011	37.6800	4	0	0 
02104.813	-0.0168	-0.0037	0.9983	0.0000	0.0000	0.0000	1.8951	0.7965	179.8956	37.6600	4	0	0 
02104.813	-0.0168	-0.0037	0.9983	0.0000	0.0000	0.0000	1.8896	0.7910	179.8901	37.6600	4	0	0 
02104.813	-0.0168	-0.0037	0.9983	0.0000	0.0000	0.0000	1.8896	0.7855	179.8846	37.6800	3	0	0 
02104.816	-0.0168	-0.0037	0.9983	0.0000	0.0000	0.0000	1.8842	0.7800	179.8737	37.6800	3	0	0 
02104.816	-0.0168	-0.0037	0.9983	0.0000	0.0000	0.0000	1.8787	0.7745	179.8682	37.7000	4	0	0 
02104.818	-0.0168	-0.0037	0.9983	0.0000	0.0000	0.0000	1.8732	0.7635	179.8627	37.7000	5	0	0 
02104.826	-0.0168	-0.0037	0.9983	0.0000	0.0000	0.0000	1.8677	0.7581	179.8572	37.6800	5	0	0 
02104.826	-0.0168	-0.0037	0.9983	0.0000	0.0000	0.0000	1.8622	0.7526	179.8517	37.6800	5	0	0 
02104.833	-0.0166	-0.0037	0.9983	0.0000	0.0000	0.0000	1.8567	0.7471	179.8462	37.6800	5	0	0 
02104.833	-0.0166	-0.0037	0.9983	0.0000	0.0000	0.0000	1.8512	0.7416	179.8352	37.6800	4	0	0 
02104.833	-0.0166	-0.0037	0.9983	0.0000	0.0000	0.0000	1.8512	0.7361	179.8297	37.6800	4	0	0 
02104.836	-0.0166	-0.0037	0.9983	0.0000	0.0000	0.0000	1.8457	0.7306	179.8242	37.6800	4	0	0 
02104.836	-0.0166	-0.0037	0.9983	0.0000	0.0000	0.0000	1.8402	0.7251	179.8187	37.6800	3	0	0 
02104.836	-0.0166	-0.0037	0.9983	0.0000	0.0000	0.0000	1.8347	0.7196	179.8132	37.6900	4	0	0 
02104.839	-0.0166	-0.0037	0.9983	0.0000	0.0000	0.0000	1.8292	0.7141	179.8077	37.6900	5	0	0 
02104.846	-0.0166	-0.0037	0.9983	0.0000	0.0000	0.0000	1.8237	0.7086	179.8022	37.6300	4	0	0 
02104.871	-0.0166	-0.0037	0.9985	0.0000	0.0000	0.0000	1.8182	0.7031	179.7968	37.6300	4	0	0 
02104.871	-0.0166	-0.0037	0.9985	0.0000	0.0000	0.0000	1.8182	0.6976	179.7858	37.5900	4	0	0 
02104.873	-0.0166	-0.0037	0.9985	0.0000	0.0000	0.0000	1.8127	0.6921	179.7803	37.5900	4	0	0 
02104.873	-0.0166	-0.0037	0.9985	0.0000	0.0000	0.0000	1.8073	0.6866	179.7748	37.6500	5	0	0 
02104.873	-0.0166	-0.0037	0.9985	0.0000	0.0000	0.0000	1.8018	0.6812	179.7693	37.6500	5	0	0 
02104.873	-0.0166	-0.0037	0.9985	0.0000	0.0000	0.0000	1.7963	0.6757	179.7638	37.6600	5	0	0 
02104.873	-0.0166	-0.0037	0.9985	0.0000	0.0000	0.0000	1.7908	0.6647	179.7583	37.6600	4	0	0 
02104.873	-0.0166	-0.0037	0.9985	0.0000	0.0000	0.0000	1.7908	0.6592	179.7528	37.7000	4	0	0 
02104.875	-0.0166	-0.0037	0.9988	0.0000	0.0000	0.0000	1.7853	0.6537	179.7473	37.7000	4	0	0 
02104.885	-0.0166	-0.0037	0.9988	0.0000	0.0000	0.0000	1.7798	0.6482	179.7418	37.6500	4	0	0 
02104.885	-0.0166	-0.0037	0.9988	0.0000	0.0000	0.0000	1.7743	0.6427	179.7308	37.6500	4	0	0 
02104.892	-0.0166	-0.0037	0.9988	0.0000	0.0000	0.0000	1.7688	0.6372	179.7253	37.6500	4	0	0 
02104.895	-0.0166	-0.0037	0.9988	0.0000	0.0000	0.0000	1.7633	0.6317	179.7198	37.7200	3	0	0 
02104.895	-0.0166	-0.0037	0.9988	0.0000	0.0000	0.0000	1.7633	0.6262	179.7144	37.7200	3	0	0 
02104.900	-0.0166	-0.0037	0.9988	0.0000	0.0000	0.0000	1.7578	0.6207	179.7089	37.6200	3	0	0 
02104.905	-0.0166	-0.0037	0.9988	0.0000	0.0000	0.0000	1.7523	0.6152	179.7034	37.6200	3	0	0 
02104.907	-0.0166	-0.0037	0.9990	0.0000	0.0000	0.0000	1.7468	0.6097	179.6979	37.7000	3	0	0 
02104.907	-0.0166	-0.0037	0.9990	0.0000	0.0000	0.0000	1.7413	0.6042	179.6924	37.7000	2	0	0 
02104.909	-0.0166	-0.0037	0.9990	0.0000	0.0000	0.0000	1.7413	0.5988	179.6869	37.7700	2	0	0 
02104.909	-0.0166	-0.0037	0.9990	0.0000	0.0000	0.0000	1.7358	0.5933	179.6814	37.7700	3	0	0 
02104.911	-0.0166	-0.0037	0.9990	0.0000	0.0000	0.0000	1.7303	0.5878	179.6759	37.7000	3	0	0 
02104.913	-0.0166	-0.0037	0.9990	0.0000	0.0000	0.0000	1.7249	0.5823	179.6704	37.7000	4	0	0 
02104.915	-0.0166	-0.0037	0.9990	0.0000	0.0000	0.0000	1.7194	0.5768	179.6649	37.6800	5	0	0 
02104.915	-0.0166	-0.0037	0.9990	0.0000	0.0000	0.0000	1.7194	0.5713	179.6594	37.6800	6	0	0 
02104.920	-0.0166	-0.0037	0.9993	0.0000	0.0000	0.0000	1.7139	0.5658	179.6539	37.6000	6	0	0 
02104.922	-0.0166	-0.0037	0.9993	0.0000	0.0000	0.0000	1.7084	0.5603	179.6484	37.6000	7	0	0 
02104.922	-0.0166	-0.0037	0.9993	0.0000	0.0000	0.0000	1.7029	0.5548	179.6429	37.7000	6	0	0 
02104.924	-0.0166	-0.0037	0.9993	0.0000	0.0000	0.0000	1.6974	0.5493	179.6375	37.7000	5	0	0 
02104.928	-0.0166	-0.0037	0.9993	0.0000	0.0000	0.0000	1.6974	0.5493	179.6265	37.7000	6	0	0 
02104.928	-0.0166	-0.0037	0.9993	0.0000	0.0000	0.0000	1.6919	0.5438	179.6210	37.7100	7	0	0 
02104.945	-0.0166	-0.0037	0.9993	0.0000	0.0000	0.0000	1.6864	0.5383	179.6155	37.7100	7	0	0 
02104.956	-0.0166	-0.0037	0.9993	0.0000	0.0000	0.0000	1.6809	0.5328	179.6100	37.7200	7	0	0 
02104.958	-0.0164	-0.0037	0.9993	0.0000	0.0000	0.0000	1.6809	0.5273	179.6045	37.7200	7	0	0 
02104.958	-0.0164	-0.0037	0.9993	0.0000	0.0000	0.0000	1.6754	0.5219	179.5990	37.6200	7	0	0 
02104.963	-0.0164	-0.0037	0.9993	0.0000	0.0000	0.0000	1.6699	0.5164	179.5935	37.6200	8	0	0 
02104.963	-0.0164	-0.0037	0.9993	0.0000	0.0000	0.0000	1.6644	0.5109	179.5880	37.6800	9	0	0 
02104.973	-0.0164	-0.0037	0.9993	0.0000	0.0000	0.0000	1.6589	0.5054	179.5825	37.6800	9	0	0 
02104.984	-0.0164	-0.0037	0.9993	0.0000	0.0000	0.0000	1.6589	0.4999	179.5770	37.7500	8	0	0 
02104.986	-0.0164	-0.0037	0.9993	0.0000	0.0000	0.0000	1.6534	0.4944	179.5715	37.7500	8	0	0 
02104.986	-0.0164	-0.0037	0.9993	0.0000	0.0000	0.0000	1.6479	0.4889	179.5660	37.7000	7	0	0 
02104.989	-0.0164	-0.0039	0.9993	0.0000	0.0000	0.0000	1.6425	0.4834	179.5605	37.7000	7	0	0 
02104.999	-0.0164	-0.0039	0.9993	0.0000	0.0000	0.0000	1.6425	0.4779	179.5551	37.6800	7	0	0 
02104.999	-0.0164	-0.0039	0.9993	0.0000	0.0000	0.0000	1.6370	0.4724	179.5496	37.6800	6	0	0 
02105.001	-0.0164	-0.0039	0.9993	0.0000	0.0000	0.0000	1.6315	0.4669	179.5441	37.6500	5	0	0 
02105.006	-0.0164	-0.0039	0.9993	0.0000	0.0000	0.0000	1.6260	0.4614	179.5386	37.6500	6	0	0 
02105.006	-0.0164	-0.0039	0.9993	0.0000	0.0000	0.0000	1.6260	0.4559	179.5331	37.6500	8	0	0 
02105.014	-0.0164	-0.0039	0.9993	0.0000	0.0000	0.0000	1.6205	0.4504	179.5331	37.6800	8	0	0 
02105.016	-0.0164	-0.0039	0.9993	0.0000	0.0000	0.0000	1.6150	0.4449	179.5276	37.6800	9	0	0 
02105.022	-0.0164	-0.0037	0.9990	0.0000	0.0000	0.0000	1.6095	0.4449	179.5221	37.6600	8	0	0 
02105.022	-0.0164	-0.0037	0.9990	0.0000	0.0000	0.0000	1.6095	0.4395	179.5166	37.6600	8	0	0 
02105.031	-0.0164	-0.0037	0.9990	0.0000	0.0000	0.0000	1.6040	0.4340	179.5111	37.6800	8	0	0 
02105.031	-0.0164	-0.0037	0.9990	0.0000	0.0000	0.0000	1.5985	0.4285	179.5056	37.6800	8	0	0 
02105.042	-0.0164	-0.0037	0.9990	0.0000	0.0000	0.0000	1.5985	0.4230	179.5001	37.6500	8	0	0 
02105.046	-0.0164	-0.0037	0.9990	0.0000	0.0000	0.0000	1.5930	0.4175	179.4946	37.6500	9	0	0 
02105.051	-0.0164	-0.0037	0.9990	0.0000	0.0000	0.0000	1.5875	0.4120	179.4891	37.6500	8	0	0 
02105.051	-0.0164	-0.0037	0.9990	0.0000	0.0000	0.0000	1.5820	0.4065	179.4836	37.6500	8	0	0 
02105.060	-0.0164	-0.0034	0.9993	0.0000	0.0000	0.0000	1.5820	0.4010	179.4781	37.7000	8	0	0 
02105.066	-0.0164	-0.0034	0.9993	0.0000	0.0000	0.0000	1.5765	0.3955	179.4727	37.7000	8	0	0 
02105.066	-0.0164	-0.0034	0.9993	0.0000	0.0000	0.0000	1.5710	0.3955	179.4672	37.7100	9	0	0 
02105.100	-0.0164	-0.0034	0.9993	0.0000	0.0000	0.0000	1.5710	0.3900	179.4617	37.7100	9	0	0 
02105.102	-0.0164	-0.0034	0.9993	0.0000	0.0000	0.0000	1.5656	0.3845	179.4562	37.7100	9	0	0 
02105.102	-0.0164	-0.0034	0.9993	0.0000	0.0000	0.0000	1.5601	0.3790	179.4507	37.6700	8	0	0 
02105.102	-0.0164	-0.0034	0.9993	0.0000	0.0000	0.0000	1.5601	0.3735	179.4452	37.6700	8	0	0 
02105.102	-0.0164	-0.0034	0.9993	0.0000	0.0000	0.0000	1.5546	0.3680	179.4397	37.6500	9	0	0 
02105.105	-0.0164	-0.0034	0.9993	0.0000	0.0000	0.0000	1.5491	0.3625	179.4342	37.6500	8	0	0 
02105.105	-0.0164	-0.0034	0.9993	0.0000	0.0000	0.0000	1.5436	0.3571	179.4342	37.6900	7	0	0 
02105.133	-0.0164	-0.0034	0.9993	0.0000	0.0000	0.0000	1.5436	0.3516	179.4287	37.6900	7	0	0 
02105.138	-0.0164	-0.0034	0.9993	0.0000	0.0000	0.0000	1.5381	0.3516	179.4232	37.7000	7	0	0 
02105.138	-0.0164	-0.0034	0.9993	0.0000	0.0000	0.0000	1.5326	0.3461	179.4177	37.7000	6	0	0 
02105.140	-0.0164	-0.0034	0.9993	0.0000	0.0000	0.0000	1.5326	0.3406	179.4122	37.6300	5	0	0 
02105.143	-0.0164	-0.0034	0.9993	0.0000	0.0000	0.0000	1.5271	0.3351	179.4067	37.6300	4	0	0 
02105.143	-0.0164	-0.0034	0.9993	0.0000	0.0000	0.0000	1.5216	0.3296	179.4012	37.7000	5	0	0 
02105.145	-0.0164	-0.0034	0.9993	0.0000	0.0000	0.0000	1.5216	0.3241	179.3958	37.7000	5	0	0 
02105.148	-0.0164	-0.0034	0.9993	0.0000	0.0000	0.0000	1.5161	0.3186	179.3903	37.6500	5	0	0 
02105.148	-0.0164	-0.0034	0.9993	0.0000	0.0000	0.0000	1.5106	0.3186	179.3848	37.6500	6	0	0 
02105.157	-0.0164	-0.0034	0.9993	0.0000	0.0000	0.0000	1.5106	0.3131	179.3848	37.6700	5	0	0 
02105.164	-0.0164	-0.0034	0.9993	0.0000	0.0000	0.0000	1.5051	0.3076	179.3793	37.6700	5	0	0 
02105.164	-0.0164	-0.0034	0.9993	0.0000	0.0000	0.0000	1.4996	0.3021	179.3738	37.6700	6	0	0 
02105.168	-0.0164	-0.0034	0.9993	0.0000	0.0000	0.0000	1.4996	0.2966	179.3683	37.6800	6	0	0 
02105.176	-0.0164	-0.0034	0.9993	0.0000	0.0000	0.0000	1.4941	0.2911	179.3628	37.6800	7	0	0 
02105.185	-0.0164	-0.0034	0.9993	0.0000	0.0000	0.0000	1.4886	0.2856	179.3573	37.7300	7	0	0 
02105.185	-0.0164	-0.0034	0.9993	0.0000	0.0000	0.0000	1.4886	0.2856	179.3518	37.7300	7	0	0 
02105.191	-0.0164	-0.0034	0.9993	0.0000	0.0000	0.0000	1.4832	0.2802	179.3463	37.7200	7	0	0 
02105.197	-0.0164	-0.0034	0.9993	0.0000	0.0000	0.0000	1.4777	0.2747	179.3463	37.7200	7	0	0 
02105.197	-0.0164	-0.0034	0.9993	0.0000	0.0000	0.0000	1.4777	0.2692	179.3408	37.7100	7	0	0 
02105.206	-0.0164	-0.0034	0.9993	0.0000	0.0000	0.0000	1.4722	0.2637	179.3353	37.7100	7	0	0 
02105.209	-0.0164	-0.0034	0.9993	0.0000	0.0000	0.0000	1.4722	0.2582	179.3298	37.6700	8	0	0 
02105.209	-0.0164	-0.0034	0.9993	0.0000	0.0000	0.0000	1.4667	0.2582	179.3243	37.6700	8	0	0 
02105.219	-0.0166	-0.0037	0.9995	0.0000	0.0000	0.0000	1.4612	0.2527	179.3188	37.6500	7	0	0 
02105.226	-0.0166	-0.0037	0.9995	0.0000	0.0000	0.0000	1.4612	0.2472	179.3134	37.6500	7	0	0 
02105.226	-0.0166	-0.0037	0.9995	0.0000	0.0000	0.0000	1.4557	0.2417	179.3134	37.6600	6	0	0 
02105.234	-0.0166	-0.0037	0.9995	0.0000	0.0000	0.0000	1.4502	0.2362	179.3079	37.6600	7	0	0 
02105.251	-0.0166	-0.0037	0.9995	0.0000	0.0000	0.0000	1.4502	0.2362	179.3024	37.7300	7	0	0 
02105.251	-0.0166	-0.0037	0.9995	0.0000	0.0000	0.0000	1.4447	0.2307	179.2969	37.7300	8	0	0 
02105.276	-0.0166	-0.0037	0.9995	0.0000	0.0000	0.0000	1.4392	0.2252	179.2914	37.7300	8	0	0 
02105.278	-0.0166	-0.0037	0.9995	0.0000	0.0000	0.0000	1.4392	0.2197	179.2859	37.6800	8	0	0 
02105.278	-0.0166	-0.0039	0.9995	0.0000	0.0000	0.0000	1.4337	0.2142	179.2804	37.6800	8	0	0 
02105.278	-0.0166	-0.0039	0.9995	0.0000	0.0000	0.0000	1.4282	0.2142	179.2804	37.7100	8	0	0 
02105.278	-0.0166	-0.0039	0.9995	0.0000	0.0000	0.0000	1.4282	0.2087	179.2749	37.7100	8	0	0 
02105.280	-0.0166	-0.0039	0.9995	0.0000	0.0000	0.0000	1.4227	0.2032	179.2694	37.6700	8	0	0 
02105.280	-0.0166	-0.0039	0.9995	0.0000	0.0000	0.0000	1.4227	0.1978	179.2639	37.6700	8	0	0 
02105.292	-0.0166	-0.0039	0.9995	0.0000	0.0000	0.0000	1.4172	0.1923	179.2584	37.6600	9	0	0 
02105.294	-0.0166	-0.0039	0.9995	0.0000	0.0000	0.0000	1.4117	0.1923	179.2584	37.6600	10	0	0 
02105.295	-0.0166	-0.0039	0.9995	0.0000	0.0000	0.0000	1.4117	0.1868	179.2529	37.6600	10	0	0 
02105.297	-0.0166	-0.0042	0.9993	0.0000	0.0000	0.0000	1.4063	0.1813	179.2474	37.6600	10	0	0 
02105.311	-0.0166	-0.0042	0.9993	0.0000	0.0000	0.0000	1.4008	0.1758	179.2419	37.6200	10	0	0 
02105.311	-0.0166	-0.0042	0.9993	0.0000	0.0000	0.0000	1.4008	0.1758	179.2365	37.6200	10	0	0 
02105.313	-0.0166	-0.0042	0.9993	0.0000	0.0000	0.0000	1.3953	0.1703	179.2310	37.6600	10	0	0 
02105.322	-0.0166	-0.0042	0.9993	0.0000	0.0000	0.0000	1.3953	0.1648	179.2310	37.6600	9	0	0 
02105.322	-0.0166	-0.0042	0.9993	0.0000	0.0000	0.0000	1.3898	0.1593	179.2255	37.7500	9	0	0 
02105.326	-0.0166	-0.0042	0.9993	0.0000	0.0000	0.0000	1.3843	0.1593	179.2200	37.7500	8	0	0 
02105.342	-0.0166	-0.0042	0.9993	0.0000	0.0000	0.0000	1.3843	0.1538	179.2145	37.7500	9	0	0 
02105.344	-0.0166	-0.0042	0.9990	0.0000	0.0000	0.0000	1.3788	0.1483	179.2090	37.6500	9	0	0 
02105.344	-0.0166	-0.0042	0.9990	0.0000	0.0000	0.0000	1.3733	0.1428	179.2090	37.6500	9	0	0 
02105.348	-0.0166	-0.0042	0.9990	0.0000	0.0000	0.0000	1.3733	0.1428	179.2035	37.6800	9	0	0 
02105.360	-0.0166	-0.0042	0.9990	0.0000	0.0000	0.0000	1.3678	0.1373	179.1980	37.6800	9	0	0 
02105.360	-0.0166	-0.0042	0.9990	0.0000	0.0000	0.0000	1.3678	0.1318	179.1925	37.7200	8	0	0 
02105.368	-0.0166	-0.0042	0.9990	0.0000	0.0000	0.0000	1.3623	0.1263	179.1925	37.7200	8	0	0 
02105.373	-0.0166	-0.0042	0.9990	0.0000	0.0000	0.0000	1.3568	0.1263	179.1870	37.6600	9	0	0 
02105.373	-0.0168	-0.0042	0.9988	0.0000	0.0000	0.0000	1.3568	0.1208	179.1815	37.6600	10	0	0 
02105.387	-0.0168	-0.0042	0.9988	0.0000	0.0000	0.0000	1.3513	0.1154	179.1760	37.7200	9	0	0 
02105.390	-0.0168	-0.0042	0.9988	0.0000	0.0000	0.0000	1.3513	0.1099	179.1705	37.7200	9	0	0 
02105.390	-0.0168	-0.0042	0.9988	0.0000	0.0000	0.0000	1.3458	0.1099	179.1705	37.6800	8	0	0 
02105.395	-0.0168	-0.0042	0.9988	0.0000	0.0000	0.0000	1.3403	0.1044	179.1650	37.6800	8	0	0 
02105.402	-0.0168	-0.0042	0.9988	0.0000	0.0000	0.0000	1.3403	0.0989	179.1595	37.6400	9	0	0 
02105.402	-0.0168	-0.0042	0.9988	0.0000	0.0000	0.0000	1.3348	0.0934	179.1541	37.6400	9	0	0 
02105.408	-0.0168	-0.0042	0.9988	0.0000	0.0000	0.0000	1.3348	0.0934	179.1541	37.6400	8	0	0 
02105.420	-0.0168	-0.0042	0.9985	0.0000	0.0000	0.0000	1.3293	0.0879	179.1486	37.6400	7	0	0 
02105.420	-0.0168	-0.0042	0.9985	0.0000	0.0000	0.0000	1.3239	0.0824	179.1431	37.6400	7	0	0 
02105.422	-0.0168	-0.0042	0.9985	0.0000	0.0000	0.0000	1.3239	0.0824	179.1376	37.6500	7	0	0 
02105.437	-0.0168	-0.0042	0.9985	0.0000	0.0000	0.0000	1.3184	0.0769	179.1376	37.6500	7	0	0 
02105.439	-0.0168	-0.0042	0.9985	0.0000	0.0000	0.0000	1.3184	0.0714	179.1321	37.6700	7	0	0 
02105.439	-0.0168	-0.0042	0.9985	0.0000	0.0000	0.0000	1.3129	0.0659	179.1266	37.6700	7	0	0 
02105.449	-0.0168	-0.0042	0.9985	0.0000	0.0000	0.0000	1.3129	0.0659	179.1211	37.7000	7	0	0 
02105.451	-0.0168	-0.0042	0.9985	0.0000	0.0000	0.0000	1.3074	0.0604	179.1211	37.7000	8	0	0 
02105.451	-0.0168	-0.0039	0.9985	0.0000	0.0000	0.0000	1.3019	0.0549	179.1156	37.6700	9	0	0 
02105.461	-0.0168	-0.0039	0.9985	0.0000	0.0000	0.0000	1.3019	0.0549	179.1101	37.6700	8	0	0 
02105.465	-0.0168	-0.0039	0.9985	0.0000	0.0000	0.0000	1.2964	0.0494	179.1046	37.6400	7	0	0 
02105.465	-0.0168	-0.0039	0.9985	0.0000	0.0000	0.0000	1.2964	0.0439	179.1046	37.6400	7	0	0 
02105.479	-0.0168	-0.0039	0.9985	0.0000	0.0000	0.0000	1.2909	0.0439	179.0991	37.6300	7	0	0 
02105.508	-0.0168	-0.0039	0.9985	0.0000	0.0000	0.0000	1.2909	0.0385	179.0936	37.6300	7	0	0 
02105.508	-0.0168	-0.0039	0.9985	0.0000	0.0000	0.0000	1.2854	0.0330	179.0881	37.6300	7	0	0 
02105.510	-0.0168	-0.0039	0.9985	0.0000	0.0000	0.0000	1.2854	0.0330	179.0881	37.6300	8	0	0 
02105.510	-0.0168	-0.0039	0.9985	0.0000	0.0000	0.0000	1.2799	0.0275	179.0826	37.6300	8	0	0 
02105.510	-0.0168	-0.0039	0.9985	0.0000	0.0000	0.0000	1.2744	0.0220	179.0771	37.6500	8	0	0 
02105.510	-0.0168	-0.0039	0.9985	0.0000	0.0000	0.0000	1.2744	0.0220	179.0771	37.6500	9	0	0 
02105.513	-0.0168	-0.0039	0.9985	0.0000	0.0000	0.0000	1.2689	0.0165	179.0717	37.6800	9	0	0 
02105.519	-0.0168	-0.0039	0.9985	0.0000	0.0000	0.0000	1.2689	0.0110	179.0662	37.6800	10	0	0 
02105.519	-0.0168	-0.0039	0.9985	0.0000	0.0000	0.0000	1.2634	0.0055	179.0607	37.7100	10	0	0 
02105.525	-0.0168	-0.0039	0.9985	0.0000	0.0000	0.0000	1.2634	0.0055	179.0607	37.7100	11	0	0 
02105.531	-0.0168	-0.0039	0.9985	0.0000	0.0000	0.0000	1.2579	0.0000	179.0552	37.6700	12	0	0 
02105.531	-0.0168	-0.0037	0.9988	0.0000	0.0000	0.0000	1.2579	0.0000	179.0497	37.6700	12	0	0 
02105.542	-0.0168	-0.0037	0.9988	0.0000	0.0000	0.0000	1.2524	0.0000	179.0497	37.6600	12	0	0 
02105.544	-0.0168	-0.0037	0.9988	0.0000	0.0000	0.0000	1.2524	-0.0055	179.0442	37.6600	12	0	0 
02105.546	-0.0168	-0.0037	0.9988	0.0000	0.0000	0.0000	1.2469	-0.0110	179.0387	37.7100	11	0	0 
02105.554	-0.0168	-0.0037	0.9988	0.0000	0.0000	0.0000	1.2469	-0.0110	179.0332	37.7100	10	0	0 
02105.562	-0.0168	-0.0037	0.9988	0.0000	0.0000	0.0000	1.2415	-0.0165	179.0332	37.7400	9	0	0 
02105.562	-0.0168	-0.0037	0.9988	0.0000	0.0000	0.0000	1.2360	-0.0165	179.0277	37.7400	9	0	0 
02105.574	-0.0168	-0.0037	0.9988	0.0000	0.0000	0.0000	1.2360	-0.0220	179.0222	37.6800	8	0	0 
02105.580	-0.0166	-0.0037	0.9988	0.0000	0.0000	0.0000	1.2305	-0.0275	179.0222	37.6800	8	0	0 
02105.580	-0.0166	-0.0037	0.9988	0.0000	0.0000	0.0000	1.2305	-0.0275	179.0167	37.6800	7	0	0 
02105.590	-0.0166	-0.0037	0.9988	0.0000	0.0000	0.0000	1.2250	-0.0330	179.0112	37.6500	7	0	0 
02105.593	-0.0166	-0.0037	0.9988	0.0000	0.0000	0.0000	1.2250	-0.0385	179.0112	37.6500	6	0	0 
02105.597	-0.0166	-0.0037	0.9988	0.0000	0.0000	0.0000	1.2195	-0.0385	179.0057	37.7000	6	0	0 
02105.597	-0.0166	-0.0037	0.9988	0.0000	0.0000	0.0000	1.2195	-0.0439	179.0002	37.7000	5	0	0 
02105.607	-0.0166	-0.0037	0.9988	0.0000	0.0000	0.0000	1.2140	-0.0494	179.0002	37.7500	6	0	0 
02105.612	-0.0166	-0.0037	0.9988	0.0000	0.0000	0.0000	1.2140	-0.0494	178.9948	37.7500	7	0	0 
02105.612	-0.0164	-0.0034	0.9988	0.0000	0.0000	0.0000	1.2085	-0.0549	178.9893	37.6400	6	0	0 
02105.622	-0.0164	-0.0034	0.9988	0.0000	0.0000	0.0000	1.2085	-0.0604	178.9893	37.6400	6	0	0 
02105.627	-0.0164	-0.0034	0.9988	0.0000	0.0000	0.0000	1.2030	-0.0604	178.9838	37.6900	5	0	0 
02105.627	-0.0164	-0.0034	0.9988	0.0000	0.0000	0.0000	1.2030	-0.0659	178.9783	37.6900	5	0	0 
02105.633	-0.0164	-0.0034	0.9988	0.0000	0.0000	0.0000	1.1975	-0.0714	178.9783	37.6700	6	0	0 
02105.642	-0.0164	-0.0034	0.9988	0.0000	0.0000	0.0000	1.1975	-0.0714	178.9728	37.6700	6	0	0 
02105.642	-0.0164	-0.0034	0.9988	0.0000	0.0000	0.0000	1.1920	-0.0769	178.9673	37.6100	7	0	0 
02105.646	-0.0164	-0.0034	0.9988	0.0000	0.0000	0.0000	1.1920	-0.0824	178.9673	37.6100	7	0	0 
02105.657	-0.0161	-0.0032	0.9988	0.0000	0.0000	0.0000	1.1865	-0.0824	178.9618	37.6300	7	0	0 
02105.657	-0.0161	-0.0032	0.9988	0.0000	0.0000	0.0000	1.1865	-0.0879	178.9563	37.6300	7	0	0 
02105.684	-0.0161	-0.0032	0.9988	0.0000	0.0000	0.0000	1.1865	-0.0879	178.9563	37.6300	7	0	0 
02105.686	-0.0161	-0.0032	0.9988	0.0000	0.0000	0.0000	1.1810	-0.0934	178.9508	37.6300	7	0	0 
02105.686	-0.0161	-0.0032	0.9988	0.0000	0.0000	0.0000	1.1810	-0.0989	178.9453	37.6300	6	0	0 
02105.686	-0.0161	-0.0032	0.9988	0.0000	0.0000	0.0000	1.1755	-0.0989	178.9453	37.7000	6	0	0 
02105.691	-0.0161	-0.0032	0.9988	0.0000	0.0000	0.0000	1.1755	-0.1044	178.9398	37.7000	6	0	0 
02105.693	-0.0161	-0.0032	0.9988	0.0000	0.0000	0.0000	1.1700	-0.1099	178.9343	37.6700	6	0	0 
02105.693	-0.0156	-0.0032	0.9988	0.0000	0.0000	0.0000	1.1700	-0.1099	178.9343	37.6700	5	0	0 
02105.701	-0.0156	-0.0032	0.9988	0.0000	0.0000	0.0000	1.1646	-0.1154	178.9288	37.6900	5	0	0 
02105.707	-0.0156	-0.0032	0.9988	0.0000	0.0000	0.0000	1.1646	-0.1208	178.9288	37.6900	6	0	0 
02105.707	-0.0156	-0.0032	0.9988	0.0000	0.0000	0.0000	1.1591	-0.1208	178.9233	37.7100	7	0	0 
02105.716	-0.0156	-0.0032	0.9988	0.0000	0.0000	0.0000	1.1591	-0.1263	178.9178	37.7100	7	0	0 
02105.722	-0.0156	-0.0032	0.9988	0.0000	0.0000	0.0000	1.1536	-0.1263	178.9178	37.6900	8	0	0 
02105.722	-0.0156	-0.0032	0.9988	0.0000	0.0000	0.0000	1.1536	-0.1318	178.9124	37.6900	7	0	0 
02105.731	-0.0156	-0.0032	0.9988	0.0000	0.0000	0.0000	1.1481	-0.1373	178.9069	37.6700	6	0	0 
02105.735	-0.0159	-0.0032	0.9988	0.0000	0.0000	0.0000	1.1481	-0.1373	178.9069	37.6700	6	0	0 
02105.747	-0.0159	-0.0032	0.9988	0.0000	0.0000	0.0000	1.1481	-0.1428	178.9014	37.6400	7	0	0 
02105.747	-0.0159	-0.0032	0.9988	0.0000	0.0000	0.0000	1.1426	-0.1483	178.9014	37.6400	8	0	0 
02105.775	-0.0159	-0.0032	0.9988	0.0000	0.0000	0.0000	1.1426	-0.1483	178.8959	37.6400	9	0	0 
02105.784	-0.0159	-0.0032	0.9988	0.0000	0.0000	0.0000	1.1371	-0.1538	178.8904	37.6900	9	0	0 
02105.784	-0.0159	-0.0032	0.9988	0.0000	0.0000	0.0000	1.1371	-0.1538	178.8904	37.6900	9	0	0 
02105.786	-0.0159	-0.0032	0.9988	0.0000	0.0000	0.0000	1.1316	-0.1593	178.8849	37.6400	10	0	0 
02105.789	-0.0159	-0.0032	0.9988	0.0000	0.0000	0.0000	1.1316	-0.1648	178.8794	37.6400	11	0	0 
02105.789	-0.0159	-0.0034	0.9990	0.0000	0.0000	0.0000	1.1261	-0.1648	178.8794	37.6800	10	0	0 
02105.795	-0.0159	-0.0034	0.9990	0.0000	0.0000	0.0000	1.1261	-0.1703	178.8739	37.6800	10	0	0 
02105.799	-0.0159	-0.0034	0.9990	0.0000	0.0000	0.0000	1.1261	-0.1703	178.8739	37.7000	10	0	0 
02105.799	-0.0159	-0.0034	0.9990	0.0000	0.0000	0.0000	1.1206	-0.1758	178.8684	37.7000	10	0	0 
02105.801	-0.0159	-0.0034	0.9990	0.0000	0.0000	0.0000	1.1206	-0.1813	178.8629	37.6400	10	0	0 
02105.809	-0.0159	-0.0034	0.9990	0.0000	0.0000	0.0000	1.1151	-0.1813	178.8629	37.6400	10	0	0 
02105.809	-0.0159	-0.0034	0.9990	0.0000	0.0000	0.0000	1.1151	-0.1868	178.8574	37.6900	10	0	0 
02105.811	-0.0159	-0.0034	0.9990	0.0000	0.0000	0.0000	1.1096	-0.1868	178.8574	37.6900	9	0	0 
02105.817	-0.0161	-0.0037	0.9990	0.0000	0.0000	0.0000	1.1096	-0.1923	178.8519	37.7000	8	0	0 
02105.825	-0.0161	-0.0037	0.9990	0.0000	0.0000	0.0000	1.1041	-0.1978	178.8464	37.7000	7	0	0 
02105.825	-0.0161	-0.0037	0.9990	0.0000	0.0000	0.0000	1.1041	-0.1978	178.8464	37.7000	6	0	0 
02105.832	-0.0161	-0.0037	0.9990	0.0000	0.0000	0.0000	1.1041	-0.2032	178.8409	37.6700	5	0	0 
02105.835	-0.0161	-0.0037	0.9990	0.0000	0.0000	0.0000	1.0986	-0.2032	178.8409	37.6700	5	0	0 
02105.835	-0.0161	-0.0037	0.9990	0.0000	0.0000	0.0000	1.0986	-0.2087	178.8354	37.6800	4	0	0 
02105.860	-0.0161	-0.0037	0.9990	0.0000	0.0000	0.0000	1.0931	-0.2142	178.8300	37.6800	3	0	0 
02105.886	-0.0161	-0.0037	0.9990	0.0000	0.0000	0.0000	1.0931	-0.2142	178.8300	37.6400	4	0	0 
02105.886	-0.0161	-0.0037	0.9990	0.0000	0.0000	0.0000	1.0876	-0.2197	178.8245	37.6400	5	0	0 
02105.912	-0.0161	-0.0037	0.9990	0.0000	0.0000	0.0000	1.0876	-0.2197	178.8245	37.6600	6	0	0 
02105.914	-0.0161	-0.0037	0.9990	0.0000	0.0000	0.0000	1.0822	-0.2252	178.8190	37.6600	6	0	0 
02105.914	-0.0161	-0.0037	0.9990	0.0000	0.0000	0.0000	1.0822	-0.2252	178.8190	37.7000	7	0	0 
02105.914	-0.0161	-0.0037	0.9990	0.0000	0.0000	0.0000	1.0822	-0.2307	178.8135	37.7000	7	0	0 
02105.914	-0.0161	-0.0037	0.9990	0.0000	0.0000	0.0000	1.0767	-0.2307	178.8080	37.7000	8	0	0 
02105.914	-0.0161	-0.0037	0.9990	0.0000	0.0000	0.0000	1.0767	-0.2362	178.8080	37.7000	8	0	0 
02105.914	-0.0161	-0.0037	0.9990	0.0000	0.0000	0.0000	1.0712	-0.2417	178.8025	37.6500	8	0	0 
02105.914	-0.0159	-0.0039	0.9990	0.0000	0.0000	0.0000	1.0712	-0.2417	178.8025	37.6500	8	0	0 
02105.914	-0.0159	-0.0039	0.9990	0.0000	0.0000	0.0000	1.0657	-0.2472	178.7970	37.7400	7	0	0 
02105.914	-0.0159	-0.0039	0.9990	0.0000	0.0000	0.0000	1.0657	-0.2472	178.7970	37.7400	7	0	0 
02105.914	-0.0159	-0.0039	0.9990	0.0000	0.0000	0.0000	1.0657	-0.2527	178.7915	37.7400	7	0	0 
02105.920	-0.0159	-0.0039	0.9990	0.0000	0.0000	0.0000	1.0602	-0.2527	178.7860	37.7100	6	0	0 
02105.920	-0.0159	-0.0039	0.9990	0.0000	0.0000	0.0000	1.0602	-0.2582	178.7860	37.7100	6	0	0 
02105.923	-0.0159	-0.0039	0.9990	0.0000	0.0000	0.0000	1.0547	-0.2637	178.7805	37.6900	7	0	0 
02105.936	-0.0159	-0.0039	0.9990	0.0000	0.0000	0.0000	1.0547	-0.2637	178.7805	37.6900	7	0	0 
02105.936	-0.0159	-0.0037	0.9988	0.0000	0.0000	0.0000	1.0492	-0.2692	178.7750	37.7000	7	0	0 
02105.943	-0.0159	-0.0037	0.9988	0.0000	0.0000	0.0000	1.0492	-0.2692	178.7750	37.7000	6	0	0 
02105.946	-0.0159	-0.0037	0.9988	0.0000	0.0000	0.0000	1.0492	-0.2747	178.7695	37.6800	6	0	0 
02105.946	-0.0159	-0.0037	0.9988	0.0000	0.0000	0.0000	1.0437	-0.2747	178.7695	37.6800	5	0	0 
02105.959	-0.0159	-0.0037	0.9988	0.0000	0.0000	0.0000	1.0437	-0.2802	178.7640	37.6800	5	0	0 
02105.962	-0.0159	-0.0037	0.9988	0.0000	0.0000	0.0000	1.0382	-0.2802	178.7640	37.6800	4	0	0 
02105.962	-0.0159	-0.0037	0.9988	0.0000	0.0000	0.0000	1.0382	-0.2856	178.7585	37.6500	4	0	0 
02105.968	-0.0159	-0.0037	0.9988	0.0000	0.0000	0.0000	1.0382	-0.2856	178.7531	37.6500	5	0	0 
02105.975	-0.0159	-0.0037	0.9988	0.0000	0.0000	0.0000	1.0327	-0.2911	178.7531	37.6900	6	0	0 
02105.975	-0.0159	-0.0037	0.9988	0.0000	0.0000	0.0000	1.0327	-0.2966	178.7476	37.6900	6	0	0 
02105.983	-0.0159	-0.0037	0.9988	0.0000	0.0000	0.0000	1.0272	-0.2966	178.7476	37.7300	7	0	0 
02105.992	-0.0159	-0.0037	0.9988	0.0000	0.0000	0.0000	1.0272	-0.3021	178.7421	37.7300	6	0	0 
02105.997	-0.0159	-0.0037	0.9988	0.0000	0.0000	0.0000	1.0272	-0.3021	178.7421	37.7300	6	0	0 
02105.997	-0.0159	-0.0037	0.9988	0.0000	0.0000	0.0000	1.0217	-0.3076	178.7366	37.6600	6	0	0 
02106.006	-0.0159	-0.0037	0.9988	0.0000	0.0000	0.0000	1.0217	-0.3076	178.7366	37.6600	6	0	0 
02106.012	-0.0159	-0.0037	0.9988	0.0000	0.0000	0.0000	1.0162	-0.3131	178.7311	37.6800	6	0	0 
02106.012	-0.0161	-0.0037	0.9988	0.0000	0.0000	0.0000	1.0162	-0.3131	178.7311	37.6800	6	0	0 
02106.018	-0.0161	-0.0037	0.9988	0.0000	0.0000	0.0000	1.0162	-0.3186	178.7256	37.6800	7	0	0 
02106.032	-0.0161	-0.0037	0.9988	0.0000	0.0000	0.0000	1.0107	-0.3186	178.7256	37.6800	7	0	0 
02106.032	-0.0161	-0.0037	0.9988	0.0000	0.0000	0.0000	1.0107	-0.3241	178.7201	37.7300	7	0	0 
02106.035	-0.0161	-0.0037	0.9988	0.0000	0.0000	0.0000	1.0052	-0.3241	178.7201	37.7300	7	0	0 
02106.045	-0.0161	-0.0037	0.9988	0.0000	0.0000	0.0000	1.0052	-0.3296	178.7146	37.6500	6	0	0 
02106.045	-0.0161	-0.0037	0.9988	0.0000	0.0000	0.0000	1.0052	-0.3296	178.7146	37.6500	6	0	0 
02106.050	-0.0161	-0.0037	0.9988	0.0000	0.0000	0.0000	0.9998	-0.3351	178.7091	37.6900	6	0	0 
02106.063	-0.0164	-0.0039	0.9988	0.0000	0.0000	0.0000	0.9998	-0.3351	178.7036	37.6900	6	0	0 
02106.063	-0.0164	-0.0039	0.9988	0.0000	0.0000	0.0000	0.9943	-0.3406	178.7036	37.7200	7	0	0 
02106.087	-0.0164	-0.0039	0.9988	0.0000	0.0000	0.0000	0.9943	-0.3406	178.6981	37.7200	6	0	0 
02106.089	-0.0164	-0.0039	0.9988	0.0000	0.0000	0.0000	0.9943	-0.3461	178.6981	37.7100	6	0	0 
02106.089	-0.0164	-0.0039	0.9988	0.0000	0.0000	0.0000	0.9888	-0.3461	178.6926	37.7100	7	0	0 
02106.089	-0.0164	-0.0039	0.9988	0.0000	0.0000	0.0000	0.9888	-0.3516	178.6926	37.7100	8	0	0 
02106.089	-0.0164	-0.0039	0.9988	0.0000	0.0000	0.0000	0.9833	-0.3516	178.6871	37.6700	8	0	0 
02106.093	-0.0164	-0.0039	0.9988	0.0000	0.0000	0.0000	0.9833	-0.3571	178.6871	37.6700	7	0	0 
02106.093	-0.0168	-0.0039	0.9988	0.0000	0.0000	0.0000	0.9833	-0.3571	178.6816	37.7200	7	0	0 
02106.100	-0.0168	-0.0039	0.9988	0.0000	0.0000	0.0000	0.9778	-0.3625	178.6816	37.7200	6	0	0 
02106.107	-0.0168	-0.0039	0.9988	0.0000	0.0000	0.0000	0.9778	-0.3625	178.6761	37.7500	6	0	0 
02106.107	-0.0168	-0.0039	0.9988	0.0000	0.0000	0.0000	0.9778	-0.3680	178.6761	37.7500	5	0	0 
02106.114	-0.0168	-0.0039	0.9988	0.0000	0.0000	0.0000	0.9723	-0.3680	178.6707	37.7000	5	0	0 
02106.125	-0.0168	-0.0039	0.9988	0.0000	0.0000	0.0000	0.9723	-0.3735	178.6707	37.7000	5	0	0 
02106.125	-0.0168	-0.0039	0.9988	0.0000	0.0000	0.0000	0.9668	-0.3735	178.6652	37.6100	5	0	0 
02106.127	-0.0168	-0.0039	0.9988	0.0000	0.0000	0.0000	0.9668	-0.3790	178.6652	37.6100	5	0	0 
02106.139	-0.0171	-0.0042	0.9990	0.0000	0.0000	0.0000	0.9668	-0.3790	178.6597	37.6900	5	0	0 
02106.139	-0.0171	-0.0042	0.9990	0.0000	0.0000	0.0000	0.9613	-0.3790	178.6597	37.6900	5	0	0 
02106.141	-0.0171	-0.0042	0.9990	0.0000	0.0000	0.0000	0.9613	-0.3845	178.6597	37.7100	4	0	0 
02106.153	-0.0171	-0.0042	0.9990	0.0000	0.0000	0.0000	0.9613	-0.3845	178.6542	37.7100	4	0	0 
02106.153	-0.0171	-0.0042	0.9990	0.0000	0.0000	0.0000	0.9558	-0.3900	178.6542	37.7100	5	0	0 
02106.156	-0.0171	-0.0042	0.9990	0.0000	0.0000	0.0000	0.9558	-0.3900	178.6487	37.7000	5	0	0 
02106.168	-0.0171	-0.0042	0.9990	0.0000	0.0000	0.0000	0.9503	-0.3955	178.6487	37.7000	6	0	0 
02106.172	-0.0171	-0.0042	0.9990	0.0000	0.0000	0.0000	0.9503	-0.3955	178.6432	37.6500	6	0	0 
02106.172	-0.0171	-0.0042	0.9990	0.0000	0.0000	0.0000	0.9503	-0.4010	178.6432	37.6500	6	0	0 
02106.180	-0.0171	-0.0042	0.9990	0.0000	0.0000	0.0000	0.9448	-0.4010	178.6377	37.7100	7	0	0 
02106.187	-0.0171	-0.0042	0.9990	0.0000	0.0000	0.0000	0.9448	-0.4010	178.6377	37.7100	7	0	0 
02106.188	-0.0171	-0.0042	0.9990	0.0000	0.0000	0.0000	0.9448	-0.4065	178.6322	37.7100	8	0	0 
02106.194	-0.0171	-0.0042	0.9990	0.0000	0.0000	0.0000	0.9393	-0.4065	178.6322	37.7100	8	0	0 
02106.209	-0.0171	-0.0042	0.9990	0.0000	0.0000	0.0000	0.9393	-0.4120	178.6267	37.6500	8	0	0 
02106.209	-0.0171	-0.0042	0.9990	0.0000	0.0000	0.0000	0.9338	-0.4120	178.6267	37.6500	9	0	0 
02106.211	-0.0171	-0.0042	0.9990	0.0000	0.0000	0.0000	0.9338	-0.4175	178.6212	37.6600	10	0	0 
02106.222	-0.0171	-0.0042	0.9993	0.0000	0.0000	0.0000	0.9338	-0.4175	178.6212	37.6600	10	0	0 
02106.223	-0.0171	-0.0042	0.9993	0.0000	0.0000	0.0000	0.9283	-0.4230	178.6157	37.6700	10	0	0 
02106.225	-0.0171	-0.0042	0.9993	0.0000	0.0000	0.0000	0.9283	-0.4230	178.6157	37.6700	10	0	0 
02106.232	-0.0171	-0.0042	0.9993	0.0000	0.0000	0.0000	0.9283	-0.4230	178.6102	37.7100	9	0	0 
02106.232	-0.0171	-0.0042	0.9993	0.0000	0.0000	0.0000	0.9229	-0.4285	178.6102	37.7100	9	0	0 
02106.239	-0.0171	-0.0042	0.9993	0.0000	0.0000	0.0000	0.9229	-0.4285	178.6102	37.7100	8	0	0 
02106.247	-0.0171	-0.0042	0.9993	0.0000	0.0000	0.0000	0.9229	-0.4340	178.6047	37.6300	9	0	0 
02106.254	-0.0171	-0.0042	0.9993	0.0000	0.0000	0.0000	0.9174	-0.4340	178.6047	37.6300	10	0	0 
02106.254	-0.0168	-0.0039	0.9990	0.0000	0.0000	0.0000	0.9174	-0.4395	178.5992	37.7100	10	0	0 
02106.258	-0.0168	-0.0039	0.9990	0.0000	0.0000	0.0000	0.9119	-0.4395	178.5992	37.7100	10	0	0 
02106.269	-0.0168	-0.0039	0.9990	0.0000	0.0000	0.0000	0.9119	-0.4395	178.5938	37.6800	10	0	0 
02106.269	-0.0168	-0.0039	0.9990	0.0000	0.0000	0.0000	0.9119	-0.4449	178.5938	37.6800	10	0	0 
02106.271	-0.0168	-0.0039	0.9990	0.0000	0.0000	0.0000	0.9064	-0.4449	178.5883	37.6800	9	0	0 
02106.283	-0.0168	-0.0039	0.9990	0.0000	0.0000	0.0000	0.9064	-0.4504	178.5883	37.6800	8	0	0 
02106.283	-0.0168	-0.0039	0.9990	0.0000	0.0000	0.0000	0.9064	-0.4504	178.5828	37.7000	7	0	0 
02106.289	-0.0168	-0.0039	0.9990	0.0000	0.0000	0.0000	0.9009	-0.4504	178.5828	37.7000	7	0	0 
02106.317	-0.0168	-0.0037	0.9988	0.0000	0.0000	0.0000	0.9009	-0.4559	178.5828	37.6600	6	0	0 
02106.317	-0.0168	-0.0037	0.9988	0.0000	0.0000	0.0000	0.9009	-0.4559	178.5773	37.6600	6	0	0 
02106.319	-0.0168	-0.0037	0.9988	0.0000	0.0000	0.0000	0.8954	-0.4614	178.5773	37.7300	7	0	0 
02106.319	-0.0168	-0.0037	0.9988	0.0000	0.0000	0.0000	0.8954	-0.4614	178.5718	37.7300	7	0	0 
02106.319	-0.0168	-0.0037	0.9988	0.0000	0.0000	0.0000	0.8954	-0.4669	178.5718	37.7700	7	0	0 
02106.319	-0.0168	-0.0037	0.9988	0.0000	0.0000	0.0000	0.8899	-0.4669	178.5663	37.7700	6	0	0 
02106.332	-0.0168	-0.0037	0.9988	0.0000	0.0000	0.0000	0.8899	-0.4669	178.5663	37.7700	5	0	0 
02106.335	-0.0168	-0.0037	0.9988	0.0000	0.0000	0.0000	0.8899	-0.4724	178.5663	37.6300	5	0	0 
02106.335	-0.0168	-0.0037	0.9988	0.0000	0.0000	0.0000	0.8844	-0.4724	178.5608	37.6300	5	0	0 
02106.338