Time	ax	ay	az	wx	wy	wz	AngleX	AngleY	AngleZ	T	hx	hy	hz 
02177.986	0.0540	-0.0161	0.9968	0.3052	-0.2441	0.0000	-0.5328	-5.2405	177.7368	37.7700	40	0	0 
02177.986	0.0540	-0.0161	0.9968	0.3052	-0.2441	0.0000	-0.5273	-5.2460	177.7368	37.7700	39	0	0 
02178.011	0.0540	-0.0161	0.9968	0.3052	-0.2441	0.0000	-0.5273	-5.2460	177.7368	37.6200	39	0	0 
02178.011	0.0540	-0.0161	0.9968	0.3052	-0.2441	0.0000	-0.5273	-5.2460	177.7368	37.6200	40	0	0 
02178.011	0.0540	-0.0161	0.9968	0.3052	-0.2441	0.0000	-0.5219	-5.2460	177.7368	37.6700	40	0	0 
02178.021	0.0540	-0.0161	0.9968	0.3052	-0.2441	0.0000	-0.5219	-5.2515	177.7368	37.6700	41	0	0 
02178.021	0.0540	-0.0161	0.9968	0.3052	-0.2441	0.0000	-0.5219	-5.2515	177.7368	37.7100	41	0	0 
02178.021	0.0540	-0.0161	0.9968	0.3052	-0.2441	0.0000	-0.5164	-5.2515	177.7368	37.7100	41	0	0 
02178.034	0.0527	-0.0176	0.9971	0.2441	-0.1831	0.0000	-0.5164	-5.2515	177.7368	37.7100	41	0	0 
02178.034	0.0527	-0.0176	0.9971	0.2441	-0.1831	0.0000	-0.5164	-5.2515	177.7368	37.7100	41	0	0 
02178.034	0.0527	-0.0176	0.9971	0.2441	-0.1831	0.0000	-0.5164	-5.2515	177.7368	37.7100	41	0	0 
02178.064	0.0527	-0.0176	0.9971	0.2441	-0.1831	0.0000	-0.5109	-5.2570	177.7368	37.7300	40	0	0 
02178.064	0.0527	-0.0176	0.9971	0.2441	-0.1831	0.0000	-0.5109	-5.2570	177.7368	37.7300	40	0	0 
02178.064	0.0527	-0.0176	0.9971	0.2441	-0.1831	0.0000	-0.5109	-5.2570	177.7368	37.6700	40	0	0 
02178.092	0.0527	-0.0176	0.9971	0.2441	-0.1831	0.0000	-0.5109	-5.2570	177.7368	37.6700	39	0	0 
02178.093	0.0527	-0.0176	0.9971	0.2441	-0.1831	0.0000	-0.5054	-5.2570	177.7368	37.7100	39	0	0 
02178.093	0.0527	-0.0200	0.9968	0.1221	-0.1831	0.0000	-0.5054	-5.2570	177.7368	37.7100	39	0	0 
02178.099	0.0527	-0.0200	0.9968	0.1221	-0.1831	0.0000	-0.5054	-5.2570	177.7368	37.7300	40	0	0 
02178.099	0.0527	-0.0200	0.9968	0.1221	-0.1831	0.0000	-0.5054	-5.2625	177.7368	37.7300	40	0	0 
02178.099	0.0527	-0.0200	0.9968	0.1221	-0.1831	0.0000	-0.5054	-5.2625	177.7368	37.6700	40	0	0 
02178.106	0.0527	-0.0200	0.9968	0.1221	-0.1831	0.0000	-0.5054	-5.2625	177.7368	37.6700	39	0	0 
02178.106	0.0527	-0.0200	0.9968	0.1221	-0.1831	0.0000	-0.5054	-5.2625	177.7368	37.7100	39	0	0 
02178.108	0.0527	-0.0200	0.9968	0.1221	-0.1831	0.0000	-0.5054	-5.2625	177.7368	37.7100	39	0	0 
02178.108	0.0527	-0.0200	0.9968	0.1221	-0.1831	0.0000	-0.5054	-5.2625	177.7368	37.7300	39	0	0 
02178.108	0.0522	-0.0173	0.9968	0.1831	-0.1831	0.0000	-0.5054	-5.2625	177.7368	37.7300	39	0	0 
02178.118	0.0522	-0.0173	0.9968	0.1831	-0.1831	0.0000	-0.5054	-5.2679	177.7368	37.7100	39	0	0 
02178.118	0.0522	-0.0173	0.9968	0.1831	-0.1831	0.0000	-0.4999	-5.2679	177.7368	37.7100	39	0	0 
02178.118	0.0522	-0.0173	0.9968	0.1831	-0.1831	0.0000	-0.4999	-5.2679	177.7368	37.7100	38	0	0 
02178.127	0.0522	-0.0173	0.9968	0.1831	-0.1831	0.0000	-0.4999	-5.2679	177.7368	37.6600	38	0	0 
02178.127	0.0522	-0.0173	0.9968	0.1831	-0.1831	0.0000	-0.4999	-5.2679	177.7368	37.6600	38	0	0 
02178.127	0.0522	-0.0173	0.9968	0.1831	-0.1831	0.0000	-0.4999	-5.2679	177.7368	37.7200	38	0	0 
02178.130	0.0522	-0.0173	0.9968	0.1831	-0.1831	0.0000	-0.4999	-5.2679	177.7368	37.7200	39	0	0 
02178.130	0.0520	-0.0168	0.9973	0.2441	-0.1831	0.0000	-0.4944	-5.2679	177.7368	37.7700	39	0	0 
02178.130	0.0520	-0.0168	0.9973	0.2441	-0.1831	0.0000	-0.4944	-5.2734	177.7368	37.7700	39	0	0 
02178.143	0.0520	-0.0168	0.9973	0.2441	-0.1831	0.0000	-0.4944	-5.2734	177.7368	37.7400	40	0	0 
02178.143	0.0520	-0.0168	0.9973	0.2441	-0.1831	0.0000	-0.4944	-5.2734	177.7368	37.7400	40	0	0 
02178.143	0.0520	-0.0168	0.9973	0.2441	-0.1831	0.0000	-0.4889	-5.2734	177.7368	37.6600	39	0	0 
02178.160	0.0520	-0.0168	0.9973	0.2441	-0.1831	0.0000	-0.4889	-5.2734	177.7368	37.6600	39	0	0 
02178.160	0.0520	-0.0168	0.9973	0.2441	-0.1831	0.0000	-0.4889	-5.2734	177.7368	37.6800	39	0	0 
02178.160	0.0520	-0.0168	0.9973	0.2441	-0.1831	0.0000	-0.4889	-5.2734	177.7368	37.6800	40	0	0 
02178.185	0.0532	-0.0151	0.9963	0.3052	-0.2441	-0.0610	-0.4834	-5.2734	177.7368	37.7100	40	0	0 
02178.185	0.0532	-0.0151	0.9963	0.3052	-0.2441	-0.0610	-0.4834	-5.2789	177.7368	37.7100	39	0	0 
02178.185	0.0532	-0.0151	0.9963	0.3052	-0.2441	-0.0610	-0.4834	-5.2789	177.7368	37.6900	39	0	0 
02178.188	0.0532	-0.0151	0.9963	0.3052	-0.2441	-0.0610	-0.4779	-5.2789	177.7368	37.6900	40	0	0 
02178.188	0.0532	-0.0151	0.9963	0.3052	-0.2441	-0.0610	-0.4779	-5.2789	177.7368	37.6900	40	0	0 
02178.188	0.0532	-0.0151	0.9963	0.3052	-0.2441	-0.0610	-0.4724	-5.2844	177.7368	37.6700	41	0	0 
02178.204	0.0532	-0.0151	0.9963	0.3052	-0.2441	-0.0610	-0.4724	-5.2844	177.7368	37.6700	41	0	0 
02178.204	0.0532	-0.0151	0.9963	0.3052	-0.2441	-0.0610	-0.4724	-5.2844	177.7368	37.7300	41	0	0 
02178.235	0.0535	-0.0156	0.9966	0.3052	-0.3052	-0.0610	-0.4669	-5.2844	177.7368	37.7300	41	0	0 
02178.236	0.0535	-0.0156	0.9966	0.3052	-0.3052	-0.0610	-0.4669	-5.2844	177.7368	37.7700	40	0	0 
02178.236	0.0535	-0.0156	0.9966	0.3052	-0.3052	-0.0610	-0.4669	-5.2899	177.7368	37.7700	40	0	0 
02178.239	0.0535	-0.0156	0.9966	0.3052	-0.3052	-0.0610	-0.4614	-5.2899	177.7368	37.7000	39	0	0 
02178.239	0.0535	-0.0156	0.9966	0.3052	-0.3052	-0.0610	-0.4614	-5.2899	177.7368	37.7000	40	0	0 
02178.239	0.0535	-0.0156	0.9966	0.3052	-0.3052	-0.0610	-0.4614	-5.2954	177.7368	37.7200	40	0	0 
02178.258	0.0535	-0.0156	0.9966	0.3052	-0.3052	-0.0610	-0.4559	-5.2954	177.7368	37.7200	40	0	0 
02178.258	0.0535	-0.0156	0.9966	0.3052	-0.3052	-0.0610	-0.4559	-5.2954	177.7368	37.7400	41	0	0 
02178.258	0.0547	-0.0137	0.9961	0.2441	-0.3052	-0.1221	-0.4559	-5.2954	177.7368	37.7400	42	0	0 
02178.276	0.0547	-0.0137	0.9961	0.2441	-0.3052	-0.1221	-0.4559	-5.3009	177.7313	37.7000	42	0	0 
02178.276	0.0547	-0.0137	0.9961	0.2441	-0.3052	-0.1221	-0.4504	-5.3009	177.7313	37.7000	42	0	0 
02178.276	0.0547	-0.0137	0.9961	0.2441	-0.3052	-0.1221	-0.4504	-5.3009	177.7313	37.7000	41	0	0 
02178.280	0.0547	-0.0137	0.9961	0.2441	-0.3052	-0.1221	-0.4504	-5.3064	177.7313	37.6800	41	0	0 
02178.280	0.0547	-0.0137	0.9961	0.2441	-0.3052	-0.1221	-0.4449	-5.3064	177.7313	37.6800	41	0	0 
02178.280	0.0547	-0.0137	0.9961	0.2441	-0.3052	-0.1221	-0.4449	-5.3064	177.7313	37.7400	41	0	0 
02178.284	0.0547	-0.0137	0.9961	0.2441	-0.3052	-0.1221	-0.4449	-5.3064	177.7313	37.7400	40	0	0 
02178.284	0.0564	-0.0161	0.9954	0.1831	-0.3052	-0.1221	-0.4395	-5.3119	177.7313	37.7200	41	0	0 
02178.284	0.0564	-0.0161	0.9954	0.1831	-0.3052	-0.1221	-0.4395	-5.3119	177.7313	37.7200	42	0	0 
02178.302	0.0564	-0.0161	0.9954	0.1831	-0.3052	-0.1221	-0.4395	-5.3119	177.7258	37.7100	42	0	0 
02178.302	0.0564	-0.0161	0.9954	0.1831	-0.3052	-0.1221	-0.4395	-5.3174	177.7258	37.7100	41	0	0 
02178.302	0.0564	-0.0161	0.9954	0.1831	-0.3052	-0.1221	-0.4395	-5.3174	177.7258	37.6800	41	0	0 
02178.313	0.0564	-0.0161	0.9954	0.1831	-0.3052	-0.1221	-0.4340	-5.3174	177.7258	37.6800	41	0	0 
02178.313	0.0564	-0.0161	0.9954	0.1831	-0.3052	-0.1221	-0.4340	-5.3229	177.7258	37.7500	42	0	0 
02178.314	0.0564	-0.0161	0.9954	0.1831	-0.3052	-0.1221	-0.4340	-5.3229	177.7258	37.7500	42	0	0 
02178.352	0.0554	-0.0161	0.9963	0.1221	-0.3052	-0.0610	-0.4340	-5.3229	177.7258	37.7100	42	0	0 
02178.352	0.0554	-0.0161	0.9963	0.1221	-0.3052	-0.0610	-0.4340	-5.3284	177.7258	37.7100	42	0	0 
02178.362	0.0554	-0.0161	0.9963	0.1221	-0.3052	-0.0610	-0.4340	-5.3284	177.7258	37.7000	42	0	0 
02178.362	0.0554	-0.0161	0.9963	0.1221	-0.3052	-0.0610	-0.4285	-5.3284	177.7258	37.7000	42	0	0 
02178.362	0.0554	-0.0161	0.9963	0.1221	-0.3052	-0.0610	-0.4285	-5.3339	177.7258	37.7000	42	0	0 
02178.365	0.0554	-0.0161	0.9963	0.1221	-0.3052	-0.0610	-0.4285	-5.3339	177.7258	37.7000	42	0	0 
02178.365	0.0554	-0.0161	0.9963	0.1221	-0.3052	-0.0610	-0.4285	-5.3339	177.7258	37.7000	42	0	0 
02178.365	0.0554	-0.0161	0.9963	0.1221	-0.3052	-0.0610	-0.4285	-5.3394	177.7258	37.7500	42	0	0 
02178.387	0.0571	-0.0156	0.9954	0.0610	-0.1831	-0.0610	-0.4285	-5.3394	177.7203	37.7500	42	0	0 
02178.387	0.0571	-0.0156	0.9954	0.0610	-0.1831	-0.0610	-0.4285	-5.3394	177.7203	37.7000	41	0	0 
02178.387	0.0571	-0.0156	0.9954	0.0610	-0.1831	-0.0610	-0.4285	-5.3394	177.7203	37.7000	41	0	0 
02178.416	0.0571	-0.0156	0.9954	0.0610	-0.1831	-0.0610	-0.4285	-5.3448	177.7203	37.7000	42	0	0 
02178.416	0.0571	-0.0156	0.9954	0.0610	-0.1831	-0.0610	-0.4285	-5.3448	177.7203	37.7000	42	0	0 
02178.416	0.0571	-0.0156	0.9954	0.0610	-0.1831	-0.0610	-0.4230	-5.3448	177.7203	37.7000	42	0	0 
02178.418	0.0571	-0.0156	0.9954	0.0610	-0.1831	-0.0610	-0.4230	-5.3448	177.7203	37.7000	42	0	0 
02178.418	0.0571	-0.0156	0.9954	0.0610	-0.1831	-0.0610	-0.4230	-5.3448	177.7203	37.6900	42	0	0 
02178.418	0.0562	-0.0156	0.9963	0.0610	-0.1221	0.0000	-0.4230	-5.3503	177.7203	37.6900	42	0	0 
02178.418	0.0562	-0.0156	0.9963	0.0610	-0.1221	0.0000	-0.4230	-5.3503	177.7203	37.6800	41	0	0 
02178.418	0.0562	-0.0156	0.9963	0.0610	-0.1221	0.0000	-0.4230	-5.3503	177.7203	37.6800	41	0	0 
02178.418	0.0562	-0.0156	0.9963	0.0610	-0.1221	0.0000	-0.4230	-5.3503	177.7203	37.7100	41	0	0 
02178.421	0.0562	-0.0156	0.9963	0.0610	-0.1221	0.0000	-0.4230	-5.3503	177.7203	37.7100	41	0	0 
02178.421	0.0562	-0.0156	0.9963	0.0610	-0.1221	0.0000	-0.4230	-5.3503	177.7203	37.7100	41	0	0 
02178.421	0.0562	-0.0156	0.9963	0.0610	-0.1221	0.0000	-0.4230	-5.3558	177.7203	37.7200	41	0	0 
02178.430	0.0562	-0.0156	0.9963	0.0610	-0.1221	0.0000	-0.4230	-5.3558	177.7203	37.7200	40	0	0 
02178.430	0.0552	-0.0161	0.9966	0.0000	-0.0610	0.0000	-0.4230	-5.3558	177.7203	37.7400	40	0	0 
02178.430	0.0552	-0.0161	0.9966	0.0000	-0.0610	0.0000	-0.4230	-5.3558	177.7203	37.7400	38	0	0 
02178.434	0.0552	-0.0161	0.9966	0.0000	-0.0610	0.0000	-0.4230	-5.3558	177.7203	37.6900	37	0	0 
02178.434	0.0552	-0.0161	0.9966	0.0000	-0.0610	0.0000	-0.4230	-5.3558	177.7203	37.6900	38	0	0 
02178.478	0.0552	-0.0161	0.9966	0.0000	-0.0610	0.0000	-0.4230	-5.3558	177.7203	37.7500	38	0	0 
02178.478	0.0552	-0.0161	0.9966	0.0000	-0.0610	0.0000	-0.4230	-5.3558	177.7203	37.7500	37	0	0 
02178.478	0.0552	-0.0161	0.9966	0.0000	-0.0610	0.0000	-0.4230	-5.3558	177.7203	37.7900	37	0	0 
02178.488	0.0552	-0.0161	0.9966	0.0000	-0.0610	0.0000	-0.4230	-5.3558	177.7203	37.7900	36	0	0 
02178.488	0.0562	-0.0154	0.9961	0.0000	0.0000	0.0000	-0.4230	-5.3558	177.7203	37.7100	36	0	0 
02178.488	0.0562	-0.0154	0.9961	0.0000	0.0000	0.0000	-0.4230	-5.3558	177.7203	37.7100	35	0	0 
02178.501	0.0562	-0.0154	0.9961	0.0000	0.0000	0.0000	-0.4175	-5.3558	177.7203	37.7300	35	0	0 
02178.501	0.0562	-0.0154	0.9961	0.0000	0.0000	0.0000	-0.4175	-5.3558	177.7203	37.7300	36	0	0 
02178.501	0.0562	-0.0154	0.9961	0.0000	0.0000	0.0000	-0.4175	-5.3558	177.7203	37.7100	37	0	0 
02178.545	0.0562	-0.0154	0.9961	0.0000	0.0000	0.0000	-0.4175	-5.3558	177.7203	37.7100	37	0	0 
02178.545	0.0562	-0.0154	0.9961	0.0000	0.0000	0.0000	-0.4175	-5.3558	177.7203	37.7100	37	0	0 
02178.545	0.0562	-0.0154	0.9961	0.0000	0.0000	0.0000	-0.4175	-5.3558	177.7203	37.7400	38	0	0 
02178.555	0.0549	-0.0137	0.9966	0.0000	0.0000	0.0000	-0.4175	-5.3558	177.7203	37.7400	39	0	0 
02178.555	0.0549	-0.0137	0.9966	0.0000	0.0000	0.0000	-0.4175	-5.3558	177.7203	37.6900	38	0	0 
02178.555	0.0549	-0.0137	0.9966	0.0000	0.0000	0.0000	-0.4175	-5.3558	177.7203	37.6900	38	0	0 
02178.559	0.0549	-0.0137	0.9966	0.0000	0.0000	0.0000	-0.4175	-5.3558	177.7203	37.7500	38	0	0 
02178.559	0.0549	-0.0137	0.9966	0.0000	0.0000	0.0000	-0.4175	-5.3558	177.7203	37.7500	39	0	0 
02178.559	0.0549	-0.0137	0.9966	0.0000	0.0000	0.0000	-0.4175	-5.3558	177.7203	37.6900	38	0	0 
02178.593	0.0549	-0.0137	0.9966	0.0000	0.0000	0.0000	-0.4175	-5.3558	177.7203	37.6900	38	0	0 
02178.593	0.0549	-0.0137	0.9966	0.0000	0.0000	0.0000	-0.4175	-5.3558	177.7203	37.7100	39	0	0 
02178.593	0.0547	-0.0159	0.9966	0.0000	0.0610	0.0000	-0.4175	-5.3558	177.7203	37.7100	39	0	0 
02178.595	0.0547	-0.0159	0.9966	0.0000	0.0610	0.0000	-0.4175	-5.3558	177.7203	37.6600	39	0	0 
02178.595	0.0547	-0.0159	0.9966	0.0000	0.0610	0.0000	-0.4175	-5.3558	177.7203	37.6600	39	0	0 
02178.595	0.0547	-0.0159	0.9966	0.0000	0.0610	0.0000	-0.4175	-5.3558	177.7203	37.7300	39	0	0 
02178.595	0.0547	-0.0159	0.9966	0.0000	0.0610	0.0000	-0.4175	-5.3558	177.7203	37.7300	39	0	0 
02178.595	0.0547	-0.0159	0.9966	0.0000	0.0610	0.0000	-0.4175	-5.3558	177.7203	37.7300	39	0	0 
02178.598	0.0547	-0.0159	0.9966	0.0000	0.0610	0.0000	-0.4175	-5.3558	177.7203	37.7300	39	0	0 
02178.598	0.0547	-0.0159	0.9966	0.0000	0.0610	0.0000	-0.4175	-5.3558	177.7203	37.7300	39	0	0 
02178.598	0.0542	-0.0154	0.9966	0.0000	0.0610	0.0000	-0.4175	-5.3558	177.7258	37.6900	39	0	0 
02178.604	0.0542	-0.0154	0.9966	0.0000	0.0610	0.0000	-0.4175	-5.3558	177.7258	37.6900	38	0	0 
02178.604	0.0542	-0.0154	0.9966	0.0000	0.0610	0.0000	-0.4175	-5.3558	177.7258	37.7200	38	0	0 
02178.604	0.0542	-0.0154	0.9966	0.0000	0.0610	0.0000	-0.4120	-5.3503	177.7258	37.7200	38	0	0 
02178.610	0.0542	-0.0154	0.9966	0.0000	0.0610	0.0000	-0.4120	-5.3503	177.7258	37.7600	38	0	0 
02178.610	0.0542	-0.0154	0.9966	0.0000	0.0610	0.0000	-0.4120	-5.3503	177.7258	37.7600	39	0	0 
02178.610	0.0542	-0.0154	0.9966	0.0000	0.0610	0.0000	-0.4120	-5.3503	177.7258	37.7300	39	0	0 
02178.612	0.0542	-0.0154	0.9966	0.0000	0.0610	0.0000	-0.4120	-5.3503	177.7258	37.7300	40	0	0 
02178.612	0.0554	-0.0146	0.9958	0.0000	0.0610	0.0000	-0.4120	-5.3503	177.7258	37.7400	40	0	0 
02178.612	0.0554	-0.0146	0.9958	0.0000	0.0610	0.0000	-0.4120	-5.3503	177.7258	37.7400	40	0	0 
02178.618	0.0554	-0.0146	0.9958	0.0000	0.0610	0.0000	-0.4120	-5.3503	177.7258	37.7100	41	0	0 
02178.618	0.0554	-0.0146	0.9958	0.0000	0.0610	0.0000	-0.4120	-5.3503	177.7258	37.7100	41	0	0 
02178.618	0.0554	-0.0146	0.9958	0.0000	0.0610	0.0000	-0.4120	-5.3503	177.7258	37.7300	41	0	0 
02178.636	0.0554	-0.0146	0.9958	0.0000	0.0610	0.0000	-0.4120	-5.3503	177.7258	37.7300	41	0	0 
02178.636	0.0554	-0.0146	0.9958	0.0000	0.0610	0.0000	-0.4120	-5.3503	177.7258	37.7300	41	0	0 
02178.636	0.0554	-0.0146	0.9958	0.0000	0.0610	0.0000	-0.4120	-5.3503	177.7258	37.7800	42	0	0 
02178.652	0.0544	-0.0156	0.9966	0.0000	0.0000	0.0000	-0.4120	-5.3503	177.7258	37.7800	41	0	0 
02178.652	0.0544	-0.0156	0.9966	0.0000	0.0000	0.0000	-0.4120	-5.3503	177.7258	37.7700	40	0	0 
02178.652	0.0544	-0.0156	0.9966	0.0000	0.0000	0.0000	-0.4120	-5.3503	177.7258	37.7700	40	0	0 
02178.682	0.0544	-0.0156	0.9966	0.0000	0.0000	0.0000	-0.4120	-5.3503	177.7258	37.6500	39	0	0 
02178.682	0.0544	-0.0156	0.9966	0.0000	0.0000	0.0000	-0.4120	-5.3503	177.7258	37.6500	40	0	0 
02178.702	0.0544	-0.0156	0.9966	0.0000	0.0000	0.0000	-0.4120	-5.3503	177.7258	37.7500	40	0	0 
02178.702	0.0544	-0.0156	0.9966	0.0000	0.0000	0.0000	-0.4120	-5.3503	177.7258	37.7500	40	0	0 
02178.702	0.0544	-0.0156	0.9966	0.0000	0.0000	0.0000	-0.4120	-5.3503	177.7258	37.6800	40	0	0 
02178.732	0.0544	-0.0171	0.9963	0.0000	0.0000	0.0000	-0.4120	-5.3503	177.7258	37.6800	40	0	0 
02178.732	0.0544	-0.0171	0.9963	0.0000	0.0000	0.0000	-0.4120	-5.3503	177.7258	37.7000	41	0	0 
02178.732	0.0544	-0.0171	0.9963	0.0000	0.0000	0.0000	-0.4120	-5.3503	177.7258	37.7000	41	0	0 
02178.749	0.0544	-0.0171	0.9963	0.0000	0.0000	0.0000	-0.4120	-5.3503	177.7258	37.7100	40	0	0 
02178.749	0.0544	-0.0171	0.9963	0.0000	0.0000	0.0000	-0.4120	-5.3503	177.7258	37.7100	39	0	0 
02178.749	0.0544	-0.0171	0.9963	0.0000	0.0000	0.0000	-0.4120	-5.3503	177.7258	37.7600	39	0	0 
02178.773	0.0544	-0.0171	0.9963	0.0000	0.0000	0.0000	-0.4120	-5.3503	177.7258	37.7600	38	0	0 
02178.773	0.0544	-0.0171	0.9963	0.0000	0.0000	0.0000	-0.4120	-5.3503	177.7258	37.7600	38	0	0 
02178.773	0.0559	-0.0156	0.9958	0.0000	0.0000	0.0000	-0.4120	-5.3503	177.7258	37.6400	38	0	0 
02178.785	0.0559	-0.0156	0.9958	0.0000	0.0000	0.0000	-0.4120	-5.3503	177.7258	37.6400	39	0	0 
02178.785	0.0559	-0.0156	0.9958	0.0000	0.0000	0.0000	-0.4120	-5.3503	177.7258	37.6700	40	0	0 
02178.785	0.0559	-0.0156	0.9958	0.0000	0.0000	0.0000	-0.4120	-5.3503	177.7258	37.6700	41	0	0 
02178.823	0.0559	-0.0156	0.9958	0.0000	0.0000	0.0000	-0.4120	-5.3503	177.7258	37.6700	41	0	0 
02178.823	0.0559	-0.0156	0.9958	0.0000	0.0000	0.0000	-0.4120	-5.3503	177.7258	37.6700	40	0	0 
02178.823	0.0559	-0.0156	0.9958	0.0000	0.0000	0.0000	-0.4120	-5.3503	177.7258	37.7000	39	0	0 
02178.825	0.0559	-0.0156	0.9958	0.0000	0.0000	0.0000	-0.4120	-5.3503	177.7258	37.7000	39	0	0 
02178.825	0.0544	-0.0161	0.9966	0.0000	0.0000	0.0000	-0.4120	-5.3503	177.7258	37.7100	39	0	0 
02178.825	0.0544	-0.0161	0.9966	0.0000	0.0000	0.0000	-0.4120	-5.3503	177.7258	37.7100	38	0	0 
02178.850	0.0544	-0.0161	0.9966	0.0000	0.0000	0.0000	-0.4120	-5.3503	177.7258	37.7600	39	0	0 
02178.850	0.0544	-0.0161	0.9966	0.0000	0.0000	0.0000	-0.4120	-5.3503	177.7258	37.7600	40	0	0 
02178.850	0.0544	-0.0161	0.9966	0.0000	0.0000	0.0000	-0.4120	-5.3503	177.7258	37.7200	39	0	0 
02178.862	0.0544	-0.0161	0.9966	0.0000	0.0000	0.0000	-0.4120	-5.3503	177.7258	37.7200	39	0	0 
02178.862	0.0544	-0.0161	0.9966	0.0000	0.0000	0.0000	-0.4120	-5.3503	177.7258	37.7500	39	0	0 
02178.893	0.0544	-0.0161	0.9966	0.0000	0.0000	0.0000	-0.4120	-5.3503	177.7258	37.7500	39	0	0 
02178.893	0.0547	-0.0171	0.9963	0.0000	0.0000	0.0000	-0.4120	-5.3503	177.7258	37.7500	39	0	0 
02178.893	0.0547	-0.0171	0.9963	0.0000	0.0000	0.0000	-0.4120	-5.3503	177.7258	37.7000	40	0	0 
02178.904	0.0547	-0.0171	0.9963	0.0000	0.0000	0.0000	-0.4120	-5.3503	177.7258	37.7000	41	0	0 
02178.904	0.0547	-0.0171	0.9963	0.0000	0.0000	0.0000	-0.4120	-5.3503	177.7258	37.7000	40	0	0 
02178.904	0.0547	-0.0171	0.9963	0.0000	0.0000	0.0000	-0.4120	-5.3503	177.7258	37.7000	39	0	0 
02178.914	0.0547	-0.0171	0.9963	0.0000	0.0000	0.0000	-0.4120	-5.3503	177.7258	37.6800	39	0	0 
02178.914	0.0547	-0.0171	0.9963	0.0000	0.0000	0.0000	-0.4120	-5.3503	177.7258	37.6800	39	0	0 
02178.914	0.0547	-0.0171	0.9963	0.0000	0.0000	0.0000	-0.4120	-5.3503	177.7258	37.6800	39	0	0 
02178.931	0.0549	-0.0149	0.9963	0.0000	0.0000	0.0000	-0.4120	-5.3503	177.7258	37.6800	39	0	0 
02178.931	0.0549	-0.0149	0.9963	0.0000	0.0000	0.0000	-0.4120	-5.3503	177.7258	37.7300	39	0	0 
02178.931	0.0549	-0.0149	0.9963	0.0000	0.0000	0.0000	-0.4120	-5.3503	177.7258	37.7300	40	0	0 
02178.945	0.0549	-0.0149	0.9963	0.0000	0.0000	0.0000	-0.4120	-5.3503	177.7258	37.7500	40	0	0 
02178.945	0.0549	-0.0149	0.9963	0.0000	0.0000	0.0000	-0.4120	-5.3503	177.7258	37.7500	40	0	0 
02178.945	0.0549	-0.0149	0.9963	0.0000	0.0000	0.0000	-0.4120	-5.3503	177.7258	37.7500	40	0	0 
02178.955	0.0549	-0.0149	0.9963	0.0000	0.0000	0.0000	-0.4120	-5.3503	177.7258	37.7500	41	0	0 
02178.955	0.0549	-0.0149	0.9963	0.0000	0.0000	0.0000	-0.4120	-5.3503	177.7258	37.7500	40	0	0 
02178.955	0.0542	-0.0149	0.9971	0.0000	0.0000	0.0000	-0.4120	-5.3503	177.7258	37.7000	39	0	0 
02178.968	0.0542	-0.0149	0.9971	0.0000	0.0000	0.0000	-0.4120	-5.3503	177.7258	37.7000	41	0	0 
02178.968	0.0542	-0.0149	0.9971	0.0000	0.0000	0.0000	-0.4120	-5.3503	177.7258	37.7500	42	0	0 
02178.968	0.0542	-0.0149	0.9971	0.0000	0.0000	0.0000	-0.4120	-5.3503	177.7258	37.7500	41	0	0 
02178.998	0.0542	-0.0149	0.9971	0.0000	0.0000	0.0000	-0.4120	-5.3503	177.7258	37.6800	40	0	0 
02178.998	0.0542	-0.0149	0.9971	0.0000	0.0000	0.0000	-0.4120	-5.3448	177.7258	37.6800	40	0	0 
02178.998	0.0542	-0.0149	0.9971	0.0000	0.0000	0.0000	-0.4120	-5.3448	177.7258	37.7500	40	0	0 
02179.000	0.0542	-0.0149	0.9971	0.0000	0.0000	0.0000	-0.4120	-5.3448	177.7258	37.7500	40	0	0 
02179.000	0.0544	-0.0154	0.9966	0.0000	0.0000	0.0000	-0.4065	-5.3448	177.7258	37.6900	40	0	0 
02179.008	0.0544	-0.0154	0.9966	0.0000	0.0000	0.0000	-0.4065	-5.3448	177.7258	37.6900	40	0	0 
02179.008	0.0544	-0.0154	0.9966	0.0000	0.0000	0.0000	-0.4065	-5.3448	177.7258	37.7400	40	0	0 
02179.008	0.0544	-0.0154	0.9966	0.0000	0.0000	0.0000	-0.4065	-5.3448	177.7258	37.7400	40	0	0 
02179.019	0.0544	-0.0154	0.9966	0.0000	0.0000	0.0000	-0.4065	-5.3448	177.7258	37.7000	40	0	0 
02179.019	0.0544	-0.0154	0.9966	0.0000	0.0000	0.0000	-0.4065	-5.3448	177.7258	37.7000	40	0	0 
02179.019	0.0544	-0.0154	0.9966	0.0000	0.0000	0.0000	-0.4065	-5.3448	177.7258	37.7100	40	0	0 
02179.039	0.0544	-0.0154	0.9966	0.0000	0.0000	0.0000	-0.4065	-5.3448	177.7258	37.7100	40	0	0 
02179.039	0.0544	-0.0156	0.9966	0.0000	0.0000	0.0000	-0.4065	-5.3448	177.7258	37.7100	40	0	0 
02179.039	0.0544	-0.0156	0.9966	0.0000	0.0000	0.0000	-0.4065	-5.3448	177.7258	37.7400	40	0	0 
02179.047	0.0544	-0.0156	0.9966	0.0000	0.0000	0.0000	-0.4065	-5.3448	177.7258	37.7400	41	0	0 
02179.047	0.0544	-0.0156	0.9966	0.0000	0.0000	0.0000	-0.4065	-5.3448	177.7258	37.6800	41	0	0 
02179.047	0.0544	-0.0156	0.9966	0.0000	0.0000	0.0000	-0.4065	-5.3448	177.7258	37.6800	41	0	0 
02179.061	0.0544	-0.0156	0.9966	0.0000	0.0000	0.0000	-0.4065	-5.3448	177.7258	37.6800	42	0	0 
02179.061	0.0544	-0.0156	0.9966	0.0000	0.0000	0.0000	-0.4065	-5.3448	177.7258	37.6800	43	0	0 
02179.061	0.0544	-0.0156	0.9966	0.0000	0.0000	0.0000	-0.4065	-5.3448	177.7258	37.7000	42	0	0 
02179.066	0.0549	-0.0146	0.9961	0.0000	0.0000	0.0000	-0.4065	-5.3448	177.7258	37.7000	41	0	0 
02179.066	0.0549	-0.0146	0.9961	0.0000	0.0000	0.0000	-0.4065	-5.3448	177.7258	37.7100	41	0	0 
02179.066	0.0549	-0.0146	0.9961	0.0000	0.0000	0.0000	-0.4065	-5.3448	177.7258	37.7100	40	0	0 
02179.093	0.0549	-0.0146	0.9961	0.0000	0.0000	0.0000	-0.4065	-5.3448	177.7258	37.8100	40	0	0 
02179.093	0.0549	-0.0146	0.9961	0.0000	0.0000	0.0000	-0.4065	-5.3448	177.7258	37.8100	41	0	0 
02179.093	0.0549	-0.0146	0.9961	0.0000	0.0000	0.0000	-0.4065	-5.3448	177.7258	37.7200	41	0	0 
02179.101	0.0549	-0.0146	0.9961	0.0000	0.0000	0.0000	-0.4065	-5.3448	177.7258	37.7200	41	0	0 
02179.101	0.0549	-0.0146	0.9961	0.0000	0.0000	0.0000	-0.4065	-5.3448	177.7258	37.6800	41	0	0 
02179.101	0.0544	-0.0151	0.9963	0.0000	0.0000	0.0000	-0.4065	-5.3448	177.7258	37.6800	40	0	0 
02179.109	0.0544	-0.0151	0.9963	0.0000	0.0000	0.0000	-0.4065	-5.3448	177.7258	37.6800	40	0	0 
02179.109	0.0544	-0.0151	0.9963	0.0000	0.0000	0.0000	-0.4065	-5.3448	177.7258	37.6800	39	0	0 
02179.117	0.0544	-0.0151	0.9963	0.0000	0.0000	0.0000	-0.4065	-5.3448	177.7258	37.6800	38	0	0 
02179.117	0.0544	-0.0151	0.9963	0.0000	0.0000	0.0000	-0.4065	-5.3448	177.7258	37.7200	39	0	0 
02179.117	0.0544	-0.0151	0.9963	0.0000	0.0000	0.0000	-0.4065	-5.3448	177.7258	37.7200	39	0	0 
02179.129	0.0544	-0.0151	0.9963	0.0000	0.0000	0.0000	-0.4065	-5.3448	177.7258	37.7300	39	0	0 
02179.129	0.0544	-0.0151	0.9963	0.0000	0.0000	0.0000	-0.4065	-5.3448	177.7258	37.7300	39	0	0 
02179.129	0.0549	-0.0161	0.9956	0.0000	0.0000	0.0000	-0.4065	-5.3448	177.7258	37.7300	38	0	0 
02179.134	0.0549	-0.0161	0.9956	0.0000	0.0000	0.0000	-0.4065	-5.3448	177.7258	37.7300	37	0	0 
02179.134	0.0549	-0.0161	0.9956	0.0000	0.0000	0.0000	-0.4065	-5.3448	177.7258	37.7100	38	0	0 
02179.134	0.0549	-0.0161	0.9956	0.0000	0.0000	0.0000	-0.4065	-5.3448	177.7258	37.7100	38	0	0 
02179.140	0.0549	-0.0161	0.9956	0.0000	0.0000	0.0000	-0.4065	-5.3448	177.7258	37.6800	38	0	0 
02179.140	0.0549	-0.0161	0.9956	0.0000	0.0000	0.0000	-0.4065	-5.3448	177.7258	37.6800	39	0	0 
02179.140	0.0549	-0.0161	0.9956	0.0000	0.0000	0.0000	-0.4065	-5.3448	177.7258	37.7100	39	0	0 
02179.166	0.0549	-0.0161	0.9956	0.0000	0.0000	0.0000	-0.4065	-5.3448	177.7258	37.7100	39	0	0 
02179.166	0.0549	-0.0149	0.9958	0.0000	0.0000	0.0000	-0.4065	-5.3448	177.7258	37.7200	40	0	0 
02179.166	0.0549	-0.0149	0.9958	0.0000	0.0000	0.0000	-0.4065	-5.3448	177.7258	37.7200	40	0	0 
02179.181	0.0549	-0.0149	0.9958	0.0000	0.0000	0.0000	-0.4065	-5.3448	177.7258	37.7200	41	0	0 
02179.181	0.0549	-0.0149	0.9958	0.0000	0.0000	0.0000	-0.4010	-5.3448	177.7258	37.6500	42	0	0 
02179.181	0.0549	-0.0149	0.9958	0.0000	0.0000	0.0000	-0.4010	-5.3448	177.7258	37.6500	42	0	0 
02179.191	0.0549	-0.0149	0.9958	0.0000	0.0000	0.0000	-0.4010	-5.3448	177.7258	37.7300	41	0	0 
02179.191	0.0549	-0.0149	0.9958	0.0000	0.0000	0.0000	-0.4010	-5.3448	177.7258	37.7300	41	0	0 
02179.191	0.0549	-0.0149	0.9958	0.0000	0.0000	0.0000	-0.4010	-5.3448	177.7258	37.7700	40	0	0 
02179.224	0.0549	-0.0159	0.9956	0.0000	0.0000	0.0000	-0.4010	-5.3448	177.7258	37.7700	40	0	0 
02179.224	0.0549	-0.0159	0.9956	0.0000	0.0000	0.0000	-0.4010	-5.3448	177.7258	37.6800	40	0	0 
02179.224	0.0549	-0.0159	0.9956	0.0000	0.0000	0.0000	-0.4010	-5.3448	177.7258	37.6800	40	0	0 
02179.226	0.0549	-0.0159	0.9956	0.0000	0.0000	0.0000	-0.4010	-5.3448	177.7258	37.7100	40	0	0 
02179.226	0.0549	-0.0159	0.9956	0.0000	0.0000	0.0000	-0.4010	-5.3448	177.7258	37.7100	40	0	0 
02179.226	0.0549	-0.0159	0.9956	0.0000	0.0000	0.0000	-0.4010	-5.3448	177.7258	37.7200	41	0	0 
02179.226	0.0549	-0.0159	0.9956	0.0000	0.0000	0.0000	-0.4010	-5.3448	177.7258	37.7200	41	0	0 
02179.226	0.0549	-0.0159	0.9956	0.0000	0.0000	0.0000	-0.4010	-5.3448	177.7258	37.7000	40	0	0 
02179.226	0.0549	-0.0164	0.9956	0.0000	0.0000	0.0000	-0.4010	-5.3448	177.7258	37.7000	40	0	0 
02179.226	0.0549	-0.0164	0.9956	0.0000	0.0000	0.0000	-0.4010	-5.3448	177.7258	37.7000	39	0	0 
02179.226	0.0549	-0.0164	0.9956	0.0000	0.0000	0.0000	-0.4010	-5.3448	177.7258	37.7600	40	0	0 
02179.232	0.0549	-0.0164	0.9956	0.0000	0.0000	0.0000	-0.4010	-5.3448	177.7258	37.7600	40	0	0 
02179.232	0.0549	-0.0164	0.9956	0.0000	0.0000	0.0000	-0.4010	-5.3448	177.7258	37.6200	40	0	0 
02179.232	0.0549	-0.0164	0.9956	0.0000	0.0000	0.0000	-0.4010	-5.3448	177.7258	37.6200	40	0	0 
02179.236	0.0549	-0.0164	0.9956	0.0000	0.0000	0.0000	-0.4010	-5.3448	177.7258	37.7400	41	0	0 
02179.236	0.0549	-0.0164	0.9956	0.0000	0.0000	0.0000	-0.4010	-5.3448	177.7258	37.7400	41	0	0 
02179.236	0.0547	-0.0156	0.9961	0.0000	0.0000	0.0000	-0.4010	-5.3448	177.7258	37.7300	41	0	0 
02179.261	0.0547	-0.0156	0.9961	0.0000	0.0000	0.0000	-0.4010	-5.3448	177.7258	37.7300	40	0	0 
02179.261	0.0547	-0.0156	0.9961	0.0000	0.0000	0.0000	-0.4010	-5.3448	177.7258	37.6600	41	0	0 
02179.261	0.0547	-0.0156	0.9961	0.0000	0.0000	0.0000	-0.4010	-5.3448	177.7258	37.6600	41	0	0 
02179.279	0.0547	-0.0156	0.9961	0.0000	0.0000	0.0000	-0.4010	-5.3448	177.7258	37.6900	42	0	0 
02179.279	0.0547	-0.0156	0.9961	0.0000	0.0000	0.0000	-0.4010	-5.3448	177.7258	37.6900	41	0	0 
02179.279	0.0547	-0.0156	0.9961	0.0000	0.0000	0.0000	-0.4010	-5.3448	177.7258	37.7200	40	0	0 
02179.300	0.0547	-0.0156	0.9961	0.0000	0.0000	0.0000	-0.4010	-5.3448	177.7258	37.7200	40	0	0 
02179.300	0.0549	-0.0151	0.9961	0.0000	0.0000	0.0000	-0.4010	-5.3448	177.7258	37.7500	40	0	0 
02179.300	0.0549	-0.0151	0.9961	0.0000	0.0000	0.0000	-0.4010	-5.3448	177.7258	37.7500	40	0	0 
02179.316	0.0549	-0.0151	0.9961	0.0000	0.0000	0.0000	-0.4010	-5.3448	177.7258	37.7500	40	0	0 
02179.316	0.0549	-0.0151	0.9961	0.0000	0.0000	0.0000	-0.4010	-5.3448	177.7258	37.7500	41	0	0 
02179.328	0.0549	-0.0151	0.9961	0.0000	0.0000	0.0000	-0.4010	-5.3448	177.7258	37.7500	42	0	0 
02179.328	0.0549	-0.0151	0.9961	0.0000	0.0000	0.0000	-0.4010	-5.3448	177.7258	37.7700	42	0	0 
02179.328	0.0549	-0.0151	0.9961	0.0000	0.0000	0.0000	-0.4010	-5.3448	177.7258	37.7700	43	0	0 
02179.342	0.0549	-0.0151	0.9961	0.0000	0.0000	0.0000	-0.4010	-5.3448	177.7258	37.7300	43	0	0 
02179.342	0.0547	-0.0151	0.9961	0.0000	0.0000	0.0000	-0.4010	-5.3448	177.7258	37.7300	44	0	0 
02179.342	0.0547	-0.0151	0.9961	0.0000	0.0000	0.0000	-0.4010	-5.3448	177.7258	37.7800	43	0	0 
02179.353	0.0547	-0.0151	0.9961	0.0000	0.0000	0.0000	-0.4010	-5.3448	177.7258	37.7800	42	0	0 
02179.353	0.0547	-0.0151	0.9961	0.0000	0.0000	0.0000	-0.4010	-5.3448	177.7258	37.7000	42	0	0 
02179.353	0.0547	-0.0151	0.9961	0.0000	0.0000	0.0000	-0.4010	-5.3448	177.7258	37.7000	42	0	0 
02179.368	0.0547	-0.0151	0.9961	0.0000	0.0000	0.0000	-0.4010	-5.3448	177.7258	37.6500	41	0	0 
02179.368	0.0547	-0.0151	0.9961	0.0000	0.0000	0.0000	-0.4010	-5.3448	177.7258	37.6500	41	0	0 
02179.368	0.0547	-0.0151	0.9961	0.0000	0.0000	0.0000	-0.4010	-5.3448	177.7258	37.7300	41	0	0 
02179.380	0.0544	-0.0154	0.9966	0.0000	0.0000	0.0000	-0.4010	-5.3448	177.7258	37.7300	41	0	0 
02179.380	0.0544	-0.0154	0.9966	0.0000	0.0000	0.0000	-0.4010	-5.3448	177.7258	37.7000	41	0	0 
02179.380	0.0544	-0.0154	0.9966	0.0000	0.0000	0.0000	-0.4010	-5.3448	177.7258	37.7000	41	0	0 
02179.407	0.0544	-0.0154	0.9966	0.0000	0.0000	0.0000	-0.4010	-5.3448	177.7258	37.7000	41	0	0 
02179.407	0.0544	-0.0154	0.9966	0.0000	0.0000	0.0000	-0.4010	-5.3448	177.7258	37.7000	41	0	0 
02179.407	0.0544	-0.0154	0.9966	0.0000	0.0000	0.0000	-0.4010	-5.3448	177.7258	37.7000	40	0	0 
02179.411	0.0544	-0.0154	0.9966	0.0000	0.0000	0.0000	-0.4010	-5.3448	177.7258	37.7100	40	0	0 
02179.411	0.0544	-0.0154	0.9966	0.0000	0.0000	0.0000	-0.4010	-5.3448	177.7258	37.7100	39	0	0 
02179.411	0.0547	-0.0149	0.9966	0.0000	0.0000	0.0000	-0.4010	-5.3448	177.7258	37.7100	39	0	0 
02179.421	0.0547	-0.0149	0.9966	0.0000	0.0000	0.0000	-0.4010	-5.3448	177.7258	37.7100	39	0	0 
02179.421	0.0547	-0.0149	0.9966	0.0000	0.0000	0.0000	-0.4010	-5.3448	177.7258	37.7600	39	0	0 
02179.421	0.0547	-0.0149	0.9966	0.0000	0.0000	0.0000	-0.4010	-5.3448	177.7313	37.7600	39	0	0 
02179.436	0.0547	-0.0149	0.9966	0.0000	0.0000	0.0000	-0.4010	-5.3448	177.7313	37.7900	38	0	0 
02179.436	0.0547	-0.0149	0.9966	0.0000	0.0000	0.0000	-0.3955	-5.3448	177.7313	37.7900	39	0	0 
02179.450	0.0547	-0.0149	0.9966	0.0000	0.0000	0.0000	-0.3955	-5.3448	177.7313	37.7300	39	0	0 
02179.450	0.0547	-0.0149	0.9966	0.0000	0.0000	0.0000	-0.3955	-5.3448	177.7313	37.7300	40	0	0 
02179.450	0.0547	-0.0151	0.9966	0.0000	0.0000	0.0000	-0.3955	-5.3448	177.7313	37.7400	41	0	0 
02179.467	0.0547	-0.0151	0.9966	0.0000	0.0000	0.0000	-0.3955	-5.3448	177.7313	37.7400	41	0	0 
02179.467	0.0547	-0.0151	0.9966	0.0000	0.0000	0.0000	-0.3955	-5.3448	177.7313	37.6900	42	0	0 
02179.467	0.0547	-0.0151	0.9966	0.0000	0.0000	0.0000	-0.3955	-5.3448	177.7313	37.6900	42	0	0 
02179.480	0.0547	-0.0151	0.9966	0.0000	0.0000	0.0000	-0.3955	-5.3448	177.7313	37.6900	41	0	0 
02179.480	0.0547	-0.0151	0.9966	0.0000	0.0000	0.0000	-0.3955	-5.3448	177.7313	37.7000	41	0	0 
02179.480	0.0547	-0.0151	0.9966	0.0000	0.0000	0.0000	-0.3955	-5.3448	177.7313	37.7000	41	0	0 
02179.488	0.0547	-0.0151	0.9966	0.0000	0.0000	0.0000	-0.3955	-5.3448	177.7313	37.6900	40	0	0 
02179.488	0.0544	-0.0156	0.9968	0.0000	0.0000	0.0000	-0.3955	-5.3448	177.7313	37.6900	39	0	0 
02179.505	0.0544	-0.0156	0.9968	0.0000	0.0000	0.0000	-0.3955	-5.3448	177.7313	37.6800	41	0	0 
02179.505	0.0544	-0.0156	0.9968	0.0000	0.0000	0.0000	-0.3955	-5.3448	177.7313	37.6800	43	0	0 
02179.505	0.0544	-0.0156	0.9968	0.0000	0.0000	0.0000	-0.3955	-5.3448	177.7313	37.7400	44	0	0 
02179.524	0.0544	-0.0156	0.9968	0.0000	0.0000	0.0000	-0.3955	-5.3448	177.7313	37.7400	45	0	0 
02179.524	0.0544	-0.0156	0.9968	0.0000	0.0000	0.0000	-0.3955	-5.3448	177.7313	37.7400	46	0	0 
02179.524	0.0544	-0.0156	0.9968	0.0000	0.0000	0.0000	-0.3955	-5.3448	177.7313	37.7400	46	0	0 
02179.537	0.0544	-0.0156	0.9968	0.0000	0.0000	0.0000	-0.3955	-5.3448	177.7313	37.7400	45	0	0 
02179.537	0.0547	-0.0151	0.9963	0.0000	0.0000	0.0000	-0.3955	-5.3448	177.7313	37.7400	45	0	0 
02179.537	0.0547	-0.0151	0.9963	0.0000	0.0000	0.0000	-0.3955	-5.3448	177.7313	37.7100	44	0	0 
02179.556	0.0547	-0.0151	0.9963	0.0000	0.0000	0.0000	-0.3955	-5.3448	177.7313	37.7100	43	0	0 
02179.556	0.0547	-0.0151	0.9963	0.0000	0.0000	0.0000	-0.3955	-5.3448	177.7313	37.7100	43	0	0 
02179.556	0.0547	-0.0151	0.9963	0.0000	0.0000	0.0000	-0.3955	-5.3448	177.7313	37.7200	43	0	0 
02179.569	0.0547	-0.0151	0.9963	0.0000	0.0000	0.0000	-0.3955	-5.3448	177.7313	37.7200	44	0	0 
02179.569	0.0547	-0.0151	0.9963	0.0000	0.0000	0.0000	-0.3955	-5.3448	177.7313	37.7500	43	0	0 
02179.569	0.0547	-0.0151	0.9963	0.0000	0.0000	0.0000	-0.3955	-5.3448	177.7313	37.7500	43	0	0 
02179.583	0.0544	-0.0151	0.9966	0.0000	0.0000	0.0000	-0.3955	-5.3448	177.7313	37.7300	42	0	0 
02179.583	0.0544	-0.0151	0.9966	0.0000	0.0000	0.0000	-0.3955	-5.3448	177.7313	37.7300	42	0	0 
02179.583	0.0544	-0.0151	0.9966	0.0000	0.0000	0.0000	-0.3955	-5.3448	177.7313	37.7500	42	0	0 
02179.596	0.0544	-0.0151	0.9966	0.0000	0.0000	0.0000	-0.3955	-5.3448	177.7313	37.7500	42	0	0 
02179.596	0.0544	-0.0151	0.9966	0.0000	0.0000	0.0000	-0.3955	-5.3448	177.7313	37.6800	42	0	0 
02179.596	0.0544	-0.0151	0.9966	0.0000	0.0000	0.0000	-0.3955	-5.3448	177.7313	37.6800	41	0	0 
02179.636	0.0544	-0.0151	0.9966	0.0000	0.0000	0.0000	-0.3955	-5.3448	177.7313	37.7200	41	0	0 
02179.636	0.0544	-0.0151	0.9966	0.0000	0.0000	0.0000	-0.3955	-5.3448	177.7313	37.7200	41	0	0 
02179.636	0.0544	-0.0151	0.9963	0.0000	0.0000	0.0000	-0.3955	-5.3448	177.7313	37.7300	41	0	0 
02179.638	0.0544	-0.0151	0.9963	0.0000	0.0000	0.0000	-0.3955	-5.3448	177.7313	37.7300	42	0	0 
02179.638	0.0544	-0.0151	0.9963	0.0000	0.0000	0.0000	-0.3955	-5.3448	177.7313	37.7600	42	0	0 
02179.649	0.0544	-0.0151	0.9963	0.0000	0.0000	0.0000	-0.3955	-5.3448	177.7313	37.7600	42	0	0 
02179.649	0.0544	-0.0151	0.9963	0.0000	0.0000	0.0000	-0.3955	-5.3448	177.7313	37.7600	42	0	0 
02179.649	0.0544	-0.0151	0.9963	0.0000	0.0000	0.0000	-0.3955	-5.3448	177.7313	37.7100	42	0	0 
02179.653	0.0544	-0.0151	0.9963	0.0000	0.0000	0.0000	-0.3955	-5.3448	177.7313	37.7100	41	0	0 
02179.653	0.0544	-0.0151	0.9963	0.0000	0.0000	0.0000	-0.3955	-5.3448	177.7313	37.7400	41	0	0 
02179.653	0.0549	-0.0151	0.9966	0.0000	0.0000	0.0000	-0.3955	-5.3448	177.7313	37.7400	41	0	0 
02179.657	0.0549	-0.0151	0.9966	0.0000	0.0000	0.0000	-0.3955	-5.3448	177.7313	37.7000	41	0	0 
02179.657	0.0549	-0.0151	0.9966	0.0000	0.0000	0.0000	-0.3955	-5.3448	177.7313	37.7000	41	0	0 
02179.657	0.0549	-0.0151	0.9966	0.0000	0.0000	0.0000	-0.3900	-5.3448	177.7313	37.6800	41	0	0 
02179.665	0.0549	-0.0151	0.9966	0.0000	0.0000	0.0000	-0.3900	-5.3448	177.7313	37.6800	41	0	0 
02179.665	0.0549	-0.0151	0.9966	0.0000	0.0000	0.0000	-0.3900	-5.3448	177.7313	37.7000	41	0	0 
02179.665	0.0549	-0.0151	0.9966	0.0000	0.0000	0.0000	-0.3900	-5.3448	177.7313	37.7000	41	0	0 
02179.669	0.0549	-0.0151	0.9966	0.0000	0.0000	0.0000	-0.3900	-5.3448	177.7313	37.7700	40	0	0 
02179.669	0.0552	-0.0149	0.9963	0.0000	0.0000	0.0000	-0.3900	-5.3448	177.7313	37.7700	40	0	0 
02179.669	0.0552	-0.0149	0.9963	0.0000	0.0000	0.0000	-0.3900	-5.3448	177.7313	37.7400	40	0	0 
02179.679	0.0552	-0.0149	0.9963	0.0000	0.0000	0.0000	-0.3900	-5.3448	177.7313	37.7400	39	0	0 
02179.679	0.0552	-0.0149	0.9963	0.0000	0.0000	0.0000	-0.3900	-5.3448	177.7313	37.7100	39	0	0 
02179.679	0.0552	-0.0149	0.9963	0.0000	0.0000	0.0000	-0.3900	-5.3448	177.7313	37.7100	38	0	0 
02179.693	0.0552	-0.0149	0.9963	0.0000	0.0000	0.0000	-0.3900	-5.3448	177.7313	37.7100	38	0	0 
02179.693	0.0552	-0.0149	0.9963	0.0000	0.0000	0.0000	-0.3900	-5.3448	177.7313	37.7200	38	0	0 
02179.693	0.0552	-0.0149	0.9963	0.0000	0.0000	0.0000	-0.3900	-5.3448	177.7313	37.7200	39	0	0 
02179.707	0.0552	-0.0151	0.9966	0.0000	0.0000	0.0000	-0.3900	-5.3448	177.7313	37.7700	39	0	0 
02179.707	0.0552	-0.0151	0.9966	0.0000	0.0000	0.0000	-0.3900	-5.3448	177.7313	37.7700	40	0	0 
02179.707	0.0552	-0.0151	0.9966	0.0000	0.0000	0.0000	-0.3900	-5.3448	177.7313	37.6800	40	0	0 
02179.718	0.0552	-0.0151	0.9966	0.0000	0.0000	0.0000	-0.3900	-5.3448	177.7313	37.6800	41	0	0 
02179.718	0.0552	-0.0151	0.9966	0.0000	0.0000	0.0000	-0.3900	-5.3448	177.7313	37.7800	41	0	0 
02179.723	0.0552	-0.0151	0.9966	0.0000	0.0000	0.0000	-0.3900	-5.3448	177.7313	37.7800	42	0	0 
02179.723	0.0552	-0.0151	0.9966	0.0000	0.0000	0.0000	-0.3900	-5.3448	177.7313	37.6800	42	0	0 
02179.723	0.0552	-0.0151	0.9966	0.0000	0.0000	0.0000	-0.3900	-5.3448	177.7313	37.6800	42	0	0 
02179.725	0.0554	-0.0154	0.9966	0.0000	0.0000	0.0000	-0.3900	-5.3448	177.7313	37.7300	43	0	0 
02179.725	0.0554	-0.0154	0.9966	0.0000	0.0000	0.0000	-0.3900	-5.3448	177.7313	37.7300	42	0	0 
02179.725	0.0554	-0.0154	0.9966	0.0000	0.0000	0.0000	-0.3900	-5.3448	177.7313	37.7200	41	0	0 
02179.731	0.0554	-0.0154	0.9966	0.0000	0.0000	0.0000	-0.3900	-5.3448	177.7313	37.7200	40	0	0 
02179.731	0.0554	-0.0154	0.9966	0.0000	0.0000	0.0000	-0.3900	-5.3448	177.7313	37.6800	40	0	0 
02179.731	0.0554	-0.0154	0.9966	0.0000	0.0000	0.0000	-0.3900	-5.3448	177.7313	37.6800	40	0	0 
02179.733	0.0554	-0.0154	0.9966	0.0000	0.0000	0.0000	-0.3900	-5.3448	177.7313	37.6800	40	0	0 
02179.733	0.0554	-0.0154	0.9966	0.0000	0.0000	0.0000	-0.3900	-5.3448	177.7313	37.7200	40	0	0 
02179.733	0.0554	-0.0154	0.9968	0.0000	0.0000	0.0000	-0.3900	-5.3448	177.7313	37.7200	40	0	0 
02179.737	0.0554	-0.0154	0.9968	0.0000	0.0000	0.0000	-0.3900	-5.3448	177.7313	37.7500	40	0	0 
02179.737	0.0554	-0.0154	0.9968	0.0000	0.0000	0.0000	-0.3900	-5.3448	177.7313	37.7500	41	0	0 
02179.737	0.0554	-0.0154	0.9968	0.0000	0.0000	0.0000	-0.3900	-5.3448	177.7313	37.6800	40	0	0 
02179.740	0.0554	-0.0154	0.9968	0.0000	0.0000	0.0000	-0.3900	-5.3448	177.7313	37.6800	39	0	0 
02179.740	0.0554	-0.0154	0.9968	0.0000	0.0000	0.0000	-0.3900	-5.3448	177.7313	37.7800	39	0	0 
02179.740	0.0554	-0.0154	0.9968	0.0000	0.0000	0.0000	-0.3900	-5.3448	177.7313	37.7800	39	0	0 
02179.746	0.0554	-0.0154	0.9968	0.0000	0.0000	0.0000	-0.3900	-5.3448	177.7313	37.6800	39	0	0 
02179.746	0.0552	-0.0156	0.9971	0.0000	0.0000	0.0000	-0.3900	-5.3448	177.7313	37.6800	39	0	0 
02179.746	0.0552	-0.0156	0.9971	0.0000	0.0000	0.0000	-0.3900	-5.3448	177.7313	37.7300	39	0	0 
02179.754	0.0552	-0.0156	0.9971	0.0000	0.0000	0.0000	-0.3900	-5.3448	177.7313	37.7300	38	0	0 
02179.754	0.0552	-0.0156	0.9971	0.0000	0.0000	0.0000	-0.3900	-5.3448	177.7313	37.7300	39	0	0 
02179.754	0.0552	-0.0156	0.9971	0.0000	0.0000	0.0000	-0.3900	-5.3448	177.7313	37.7300	39	0	0 
02179.761	0.0552	-0.0156	0.9971	0.0000	0.0000	0.0000	-0.3900	-5.3448	177.7313	37.7300	39	0	0 
02179.761	0.0552	-0.0156	0.9971	0.0000	0.0000	0.0000	-0.3900	-5.3448	177.7313	37.7400	39	0	0 
02179.764	0.0552	-0.0156	0.9971	0.0000	0.0000	0.0000	-0.3900	-5.3448	177.7313	37.7400	39	0	0 
02179.764	0.0554	-0.0156	0.9966	0.0000	0.0000	0.0000	-0.3900	-5.3448	177.7313	37.6900	39	0	0 
02179.764	0.0554	-0.0156	0.9966	0.0000	0.0000	0.0000	-0.3900	-5.3448	177.7313	37.6900	39	0	0 
02179.768	0.0554	-0.0156	0.9966	0.0000	0.0000	0.0000	-0.3900	-5.3448	177.7313	37.7700	39	0	0 
02179.768	0.0554	-0.0156	0.9966	0.0000	0.0000	0.0000	-0.3900	-5.3448	177.7313	37.7700	40	0	0 
02179.768	0.0554	-0.0156	0.9966	0.0000	0.0000	0.0000	-0.3900	-5.3448	177.7313	37.7000	41	0	0 
02179.772	0.0554	-0.0156	0.9966	0.0000	0.0000	0.0000	-0.3900	-5.3448	177.7313	37.7000	40	0	0 
02179.772	0.0554	-0.0156	0.9966	0.0000	0.0000	0.0000	-0.3900	-5.3448	177.7313	37.6700	39	0	0 
02179.772	0.0554	-0.0156	0.9966	0.0000	0.0000	0.0000	-0.3900	-5.3448	177.7313	37.6700	39	0	0 
02179.780	0.0557	-0.0154	0.9966	0.0000	0.0000	0.0000	-0.3900	-5.3448	177.7313	37.7600	39	0	0 
02179.783	0.0557	-0.0154	0.9966	0.0000	0.0000	0.0000	-0.3900	-5.3448	177.7313	37.7600	39	0	0 
02179.783	0.0557	-0.0154	0.9966	0.0000	0.0000	0.0000	-0.3900	-5.3448	177.7313	37.7300	39	0	0 
02179.783	0.0557	-0.0154	0.9966	0.0000	0.0000	0.0000	-0.3900	-5.3448	177.7313	37.7300	39	0	0 
02179.818	0.0557	-0.0154	0.9966	0.0000	0.0000	0.0000	-0.3900	-5.3448	177.7313	37.7600	39	0	0 
02179.818	0.0557	-0.0154	0.9966	0.0000	0.0000	0.0000	-0.3900	-5.3448	177.7313	37.7600	39	0	0 
02179.818	0.0557	-0.0154	0.9966	0.0000	0.0000	0.0000	-0.3900	-5.3448	177.7313	37.7600	39	0	0 
02179.822	0.0557	-0.0154	0.9966	0.0000	0.0000	0.0000	-0.3900	-5.3448	177.7313	37.7000	39	0	0 
02179.822	0.0554	-0.0154	0.9966	0.0000	0.0000	0.0000	-0.3900	-5.3448	177.7313	37.7000	40	0	0 
02179.822	0.0554	-0.0154	0.9966	0.0000	0.0000	0.0000	-0.3900	-5.3448	177.7313	37.6900	40	0	0 
02179.826	0.0554	-0.0154	0.9966	0.0000	0.0000	0.0000	-0.3900	-5.3448	177.7313	37.6900	40	0	0 
02179.829	0.0554	-0.0154	0.9966	0.0000	0.0000	0.0000	-0.3900	-5.3448	177.7313	37.7100	39	0	0 
02179.832	0.0554	-0.0154	0.9966	0.0000	0.0000	0.0000	-0.3900	-5.3448	177.7313	37.7100	39	0	0 
02179.832	0.0554	-0.0154	0.9966	0.0000	0.0000	0.0000	-0.3900	-5.3448	177.7313	37.7300	39	0	0 
02179.836	0.0554	-0.0154	0.9966	0.0000	0.0000	0.0000	-0.3900	-5.3448	177.7313	37.7300	39	0	0 
02179.839	0.0554	-0.0154	0.9966	0.0000	0.0000	0.0000	-0.3900	-5.3448	177.7313	37.7100	39	0	0 
02179.839	0.0557	-0.0154	0.9963	0.0000	0.0000	0.0000	-0.3845	-5.3503	177.7313	37.7100	39	0	0 
02179.841	0.0557	-0.0154	0.9963	0.0000	0.0000	0.0000	-0.3845	-5.3503	177.7313	37.7400	39	0	0 
02179.844	0.0557	-0.0154	0.9963	0.0000	0.0000	0.0000	-0.3845	-5.3503	177.7313	37.7400	40	0	0 
02179.844	0.0557	-0.0154	0.9963	0.0000	0.0000	0.0000	-0.3845	-5.3503	177.7313	37.7400	40	0	0 
02179.846	0.0557	-0.0154	0.9963	0.0000	0.0000	0.0000	-0.3845	-5.3503	177.7313	37.7400	40	0	0 
02179.849	0.0557	-0.0154	0.9963	0.0000	0.0000	0.0000	-0.3845	-5.3503	177.7313	37.6800	40	0	0 
02179.849	0.0557	-0.0154	0.9963	0.0000	0.0000	0.0000	-0.3845	-5.3503	177.7313	37.6800	39	0	0 
02179.852	0.0549	-0.0156	0.9966	0.0000	0.0000	0.0000	-0.3845	-5.3503	177.7313	37.6800	38	0	0 
02179.857	0.0549	-0.0156	0.9966	0.0000	0.0000	0.0000	-0.3845	-5.3503	177.7313	37.6900	39	0	0 
02179.859	0.0549	-0.0156	0.9966	0.0000	0.0000	0.0000	-0.3845	-5.3503	177.7313	37.6900	39	0	0 
02179.859	0.0549	-0.0156	0.9966	0.0000	0.0000	0.0000	-0.3845	-5.3503	177.7313	37.6700	39	0	0 
02179.861	0.0549	-0.0156	0.9966	0.0000	0.0000	0.0000	-0.3845	-5.3503	177.7313	37.6700	40	0	0 
02179.866	0.0549	-0.0156	0.9966	0.0000	0.0000	0.0000	-0.3845	-5.3503	177.7313	37.7300	40	0	0 
02179.866	0.0549	-0.0156	0.9966	0.0000	0.0000	0.0000	-0.3845	-5.3503	177.7313	37.7300	40	0	0 
02179.879	0.0549	-0.0156	0.9966	0.0000	0.0000	0.0000	-0.3845	-5.3503	177.7313	37.6800	41	0	0 
02179.881	0.0549	-0.0154	0.9963	0.0000	0.0000	0.0000	-0.3845	-5.3503	177.7313	37.6800	41	0	0 
02179.881	0.0549	-0.0154	0.9963	0.0000	0.0000	0.0000	-0.3845	-5.3503	177.7313	37.7500	41	0	0 
02179.886	0.0549	-0.0154	0.9963	0.0000	0.0000	0.0000	-0.3845	-5.3503	177.7313	37.7500	40	0	0 
02179.892	0.0549	-0.0154	0.9963	0.0000	0.0000	0.0000	-0.3845	-5.3503	177.7313	37.7300	41	0	0 
02179.892	0.0549	-0.0154	0.9963	0.0000	0.0000	0.0000	-0.3845	-5.3503	177.7313	37.7300	41	0	0 
02179.894	0.0549	-0.0154	0.9963	0.0000	0.0000	0.0000	-0.3845	-5.3503	177.7313	37.7100	41	0	0 
02179.915	0.0549	-0.0154	0.9963	0.0000	0.0000	0.0000	-0.3845	-5.3503	177.7313	37.7100	41	0	0 
02179.915	0.0549	-0.0154	0.9963	0.0000	0.0000	0.0000	-0.3845	-5.3503	177.7313	37.7100	41	0	0 
02179.921	0.0549	-0.0156	0.9963	0.0000	0.0000	0.0000	-0.3845	-5.3503	177.7313	37.7100	42	0	0 
02179.923	0.0549	-0.0156	0.9963	0.0000	0.0000	0.0000	-0.3845	-5.3503	177.7313	37.7100	41	0	0 
02179.928	0.0549	-0.0156	0.9963	0.0000	0.0000	0.0000	-0.3845	-5.3503	177.7313	37.7400	41	0	0 
02179.928	0.0549	-0.0156	0.9963	0.0000	0.0000	0.0000	-0.3845	-5.3503	177.7313	37.7400	41	0	0 
02179.933	0.0549	-0.0156	0.9963	0.0000	0.0000	0.0000	-0.3845	-5.3503	177.7313	37.7600	42	0	0 
02179.938	0.0549	-0.0156	0.9963	0.0000	0.0000	0.0000	-0.3845	-5.3503	177.7313	37.7600	42	0	0 
02179.938	0.0549	-0.0156	0.9963	0.0000	0.0000	0.0000	-0.3845	-5.3503	177.7313	37.7400	42	0	0 
02179.941	0.0549	-0.0156	0.9963	0.0000	0.0000	0.0000	-0.3845	-5.3503	177.7313	37.7400	41	0	0 
02179.943	0.0549	-0.0156	0.9961	0.0000	0.0000	0.0000	-0.3845	-5.3503	177.7313	37.6700	40	0	0 
02179.943	0.0549	-0.0156	0.9961	0.0000	0.0000	0.0000	-0.3845	-5.3503	177.7313	37.6700	40	0	0 
02179.945	0.0549	-0.0156	0.9961	0.0000	0.0000	0.0000	-0.3845	-5.3503	177.7313	37.7200	40	0	0 
02179.948	0.0549	-0.0156	0.9961	0.0000	0.0000	0.0000	-0.3845	-5.3503	177.7313	37.7200	40	0	0 
02179.948	0.0549	-0.0156	0.9961	0.0000	0.0000	0.0000	-0.3845	-5.3503	177.7313	37.6500	41	0	0 
02179.953	0.0549	-0.0156	0.9961	0.0000	0.0000	0.0000	-0.3845	-5.3503	177.7313	37.6500	41	0	0 
02179.955	0.0549	-0.0156	0.9961	0.0000	0.0000	0.0000	-0.3845	-5.3503	177.7313	37.6500	41	0	0 
02179.955	0.0549	-0.0156	0.9961	0.0000	0.0000	0.0000	-0.3845	-5.3503	177.7313	37.6500	41	0	0 
02179.957	0.0549	-0.0156	0.9963	0.0000	0.0000	0.0000	-0.3845	-5.3503	177.7313	37.6500	41	0	0 
02179.959	0.0549	-0.0156	0.9963	0.0000	0.0000	0.0000	-0.3845	-5.3503	177.7313	37.7200	42	0	0 
02179.961	0.0549	-0.0156	0.9963	0.0000	0.0000	0.0000	-0.3845	-5.3503	177.7313	37.7200	41	0	0 
02179.961	0.0549	-0.0156	0.9963	0.0000	0.0000	0.0000	-0.3845	-5.3503	177.7313	37.6900	40	0	0 
02179.969	0.0549	-0.0156	0.9963	0.0000	0.0000	0.0000	-0.3845	-5.3503	177.7313	37.6900	39	0	0 
02179.974	0.0549	-0.0156	0.9963	0.0000	0.0000	0.0000	-0.3845	-5.3503	177.7313	37.6800	38	0	0 
02179.974	0.0549	-0.0156	0.9963	0.0000	0.0000	0.0000	-0.3845	-5.3503	177.7313	37.6800	38	0	0 
02180.006	0.0549	-0.0156	0.9963	0.0000	0.0000	0.0000	-0.3845	-5.3503	177.7313	37.6900	37	0	0 
02180.011	0.0549	-0.0159	0.9963	0.0000	0.0000	0.0000	-0.3845	-5.3503	177.7313	37.6900	37	0	0 
02180.011	0.0549	-0.0159	0.9963	0.0000	0.0000	0.0000	-0.3845	-5.3503	177.7313	37.6600	37	0	0 
02180.041	0.0549	-0.0159	0.9963	0.0000	0.0000	0.0000	-0.3845	-5.3503	177.7313	37.6600	38	0	0 
02180.043	0.0549	-0.0159	0.9963	0.0000	0.0000	0.0000	-0.3845	-5.3503	177.7313	37.7200	39	0	0 
02180.043	0.0549	-0.0159	0.9963	0.0000	0.0000	0.0000	-0.3845	-5.3503	177.7313	37.7200	39	0	0 
02180.043	0.0549	-0.0159	0.9963	0.0000	0.0000	0.0000	-0.3845	-5.3503	177.7313	37.7300	39	0	0 
02180.043	0.0549	-0.0159	0.9963	0.0000	0.0000	0.0000	-0.3845	-5.3503	177.7313	37.7300	39	0	0 
02180.043	0.0549	-0.0159	0.9963	0.0000	0.0000	0.0000	-0.3845	-5.3503	177.7313	37.7300	38	0	0 
02180.043	0.0564	-0.0159	0.9976	0.0000	0.0000	0.0000	-0.3845	-5.3503	177.7313	37.7300	39	0	0 
02180.045	0.0564	-0.0159	0.9976	0.0000	0.0000	0.0000	-0.3845	-5.3503	177.7313	37.7300	40	0	0 
02180.046	0.0564	-0.0159	0.9976	0.0000	0.0000	0.0000	-0.3845	-5.3503	177.7313	37.7400	39	0	0 
02180.046	0.0564	-0.0159	0.9976	0.0000	0.0000	0.0000	-0.3845	-5.3503	177.7313	37.7400	39	0	0 
02180.048	0.0564	-0.0159	0.9976	0.0000	0.0000	0.0000	-0.3845	-5.3503	177.7313	37.7300	40	0	0 
02180.059	0.0564	-0.0159	0.9976	0.0000	0.0000	0.0000	-0.3845	-5.3503	177.7313	37.7300	40	0	0 
02180.059	0.0564	-0.0159	0.9976	0.0000	0.0000	0.0000	-0.3845	-5.3503	177.7313	37.6600	41	0	0 
02180.064	0.0564	-0.0159	0.9976	0.0000	0.0000	0.0000	-0.3845	-5.3503	177.7313	37.6600	41	0	0 
02180.081	0.3850	-0.0510	1.0642	0.0000	0.0000	0.0000	-0.3900	-5.3998	177.7313	37.6300	42	0	0 
02180.081	0.3850	-0.0510	1.0642	0.0000	0.0000	0.0000	-0.3955	-5.4492	177.7313	37.6300	43	0	0 
02180.091	0.3850	-0.0510	1.0642	0.0000	0.0000	0.0000	-0.4010	-5.4987	177.7258	37.7100	43	0	0 
02180.096	0.3850	-0.0510	1.0642	0.0000	0.0000	0.0000	-0.4065	-5.5481	177.7258	37.7100	42	0	0 
02180.096	0.3850	-0.0510	1.0642	0.0000	0.0000	0.0000	-0.4120	-5.5975	177.7258	37.7400	42	0	0 
02180.101	0.3850	-0.0510	1.0642	0.0000	0.0000	0.0000	-0.4175	-5.6470	177.7258	37.7400	41	0	0 
02180.103	0.3850	-0.0510	1.0642	0.0000	0.0000	0.0000	-0.4230	-5.6964	177.7258	37.6800	40	0	0 
02180.103	0.3850	-0.0510	1.0642	0.0000	0.0000	0.0000	-0.4285	-5.7458	177.7203	37.6800	39	0	0 
02180.107	0.8213	-0.1084	1.0408	0.1221	-1.4648	0.5493	-0.4395	-5.8557	177.7203	37.7600	39	0	0 
02180.112	0.8213	-0.1084	1.0408	0.1221	-1.4648	0.5493	-0.4559	-5.9656	177.7148	37.7600	38	0	0 
02180.123	0.8213	-0.1084	1.0408	0.1221	-1.4648	0.5493	-0.4669	-6.0699	177.7148	37.7600	39	0	0 
02180.123	0.8213	-0.1084	1.0408	0.1221	-1.4648	0.5493	-0.4834	-6.1798	177.7148	37.7300	39	0	0 
02180.134	0.8213	-0.1084	1.0408	0.1221	-1.4648	0.5493	-0.4944	-6.2897	177.7094	37.7300	37	0	0 
02180.139	0.8213	-0.1084	1.0408	0.1221	-1.4648	0.5493	-0.5109	-6.3995	177.7094	37.7100	35	0	0 
02180.139	0.8213	-0.1084	1.0408	0.1221	-1.4648	0.5493	-0.5219	-6.5039	177.7039	37.7100	35	0	0 
02180.143	0.8213	-0.1084	1.0408	0.1221	-1.4648	0.5493	-0.5328	-6.6138	177.7039	37.7200	34	0	0 
02180.149	1.5125	-0.2014	0.9956	0.2441	-4.5166	1.5869	-0.5603	-6.7841	177.6984	37.7200	33	0	0 
02180.149	1.5125	-0.2014	0.9956	0.2441	-4.5166	1.5869	-0.5878	-6.9543	177.6874	37.7700	32	0	0 
02180.159	1.5125	-0.2014	0.9956	0.2441	-4.5166	1.5869	-0.6152	-7.1246	177.6819	37.7700	33	0	0 
02180.163	1.5125	-0.2014	0.9956	0.2441	-4.5166	1.5869	-0.6372	-7.2949	177.6764	37.7400	33	0	0 
02180.163	1.5125	-0.2014	0.9956	0.2441	-4.5166	1.5869	-0.6647	-7.4652	177.6709	37.7400	33	0	0 
02180.173	1.5125	-0.2014	0.9956	0.2441	-4.5166	1.5869	-0.6921	-7.6355	177.6654	37.7100	34	0	0 
02180.179	1.5125	-0.2014	0.9956	0.2441	-4.5166	1.5869	-0.7141	-7.8058	177.6599	37.7100	33	0	0 
02180.179	1.5125	-0.2014	0.9956	0.2441	-4.5166	1.5869	-0.7416	-7.9706	177.6489	37.7200	33	0	0 
02180.190	2.1597	-0.3096	0.8950	0.3662	-7.5073	2.7466	-0.7855	-8.1793	177.6379	37.7200	32	0	0 
02180.217	2.1597	-0.3096	0.8950	0.3662	-7.5073	2.7466	-0.8240	-8.3881	177.6215	37.7500	33	0	0 
02180.219	2.1597	-0.3096	0.8950	0.3662	-7.5073	2.7466	-0.8679	-8.5968	177.6105	37.7500	33	0	0 
02180.219	2.1597	-0.3096	0.8950	0.3662	-7.5073	2.7466	-0.9064	-8.8000	177.5940	37.7500	34	0	0 
02180.219	2.1597	-0.3096	0.8950	0.3662	-7.5073	2.7466	-0.9503	-9.0088	177.5830	37.7900	35	0	0 
02180.221	2.1597	-0.3096	0.8950	0.3662	-7.5073	2.7466	-0.9943	-9.2120	177.5720	37.7900	36	0	0 
02180.221	2.1597	-0.3096	0.8950	0.3662	-7.5073	2.7466	-1.0327	-9.4208	177.5555	37.7400	37	0	0 
02180.223	2.1597	-0.3096	0.8950	0.3662	-7.5073	2.7466	-1.0767	-9.6240	177.5446	37.7400	38	0	0 
02180.233	2.5098	-0.3762	0.8171	0.4883	-7.7515	3.7231	-1.1261	-9.8383	177.5281	37.7600	38	0	0 
02180.233	2.5098	-0.3762	0.8171	0.4883	-7.7515	3.7231	-1.1810	-10.0525	177.5061	37.7600	38	0	0 
02180.238	2.5098	-0.3762	0.8171	0.4883	-7.7515	3.7231	-1.2305	-10.2612	177.4896	37.7000	39	0	0 
02180.251	2.5098	-0.3762	0.8171	0.4883	-7.7515	3.7231	-1.2854	-10.4755	177.4731	37.7000	40	0	0 
02180.251	2.5098	-0.3762	0.8171	0.4883	-7.7515	3.7231	-1.3403	-10.6842	177.4567	37.7200	40	0	0 
02180.255	2.5098	-0.3762	0.8171	0.4883	-7.7515	3.7231	-1.3898	-10.8984	177.4402	37.7200	41	0	0 
02180.263	2.5098	-0.3762	0.8171	0.4883	-7.7515	3.7231	-1.4447	-11.1072	177.4237	37.7100	41	0	0 
02180.263	2.5098	-0.3762	0.8171	0.4883	-7.7515	3.7231	-1.4941	-11.3159	177.4072	37.7100	43	0	0 
02180.265	2.4031	-0.3760	0.6846	0.4883	-3.7231	3.6621	-1.5546	-11.5082	177.3853	37.6800	44	0	0 
02180.282	2.4031	-0.3760	0.6846	0.4883	-3.7231	3.6621	-1.6150	-11.7004	177.3578	37.6800	46	0	0 
02180.284	2.4031	-0.3760	0.6846	0.4883	-3.7231	3.6621	-1.6754	-11.8927	177.3358	37.6800	48	0	0 
02180.284	2.4031	-0.3760	0.6846	0.4883	-3.7231	3.6621	-1.7358	-12.0850	177.3138	37.7700	49	0	0 
02180.323	2.4031	-0.3760	0.6846	0.4883	-3.7231	3.6621	-1.7963	-12.2772	177.2864	37.7700	50	0	0 
02180.329	2.4031	-0.3760	0.6846	0.4883	-3.7231	3.6621	-1.8567	-12.4640	177.2644	37.7000	50	0	0 
02180.329	2.4031	-0.3760	0.6846	0.4883	-3.7231	3.6621	-1.9116	-12.6563	177.2424	37.7000	51	0	0 
02180.331	2.4031	-0.3760	0.6846	0.4883	-3.7231	3.6621	-1.9720	-12.8430	177.2205	37.7500	52	0	0 
02180.331	1.9487	-0.3130	0.6133	0.1831	5.1880	2.1362	-2.0270	-12.9858	177.1930	37.7500	52	0	0 
02180.331	1.9487	-0.3130	0.6133	0.1831	5.1880	2.1362	-2.0819	-13.1287	177.1655	37.7500	52	0	0 
02180.337	1.9487	-0.3130	0.6133	0.1831	5.1880	2.1362	-2.1368	-13.2660	177.1381	37.7500	52	0	0 
02180.350	1.9487	-0.3130	0.6133	0.1831	5.1880	2.1362	-2.1918	-13.4088	177.1106	37.6900	52	0	0 
02180.350	1.9487	-0.3130	0.6133	0.1831	5.1880	2.1362	-2.2467	-13.5461	177.0831	37.6900	52	0	0 
02180.377	1.9487	-0.3130	0.6133	0.1831	5.1880	2.1362	-2.3016	-13.6890	177.0557	37.6600	53	0	0 
02180.382	1.9487	-0.3130	0.6133	0.1831	5.1880	2.1362	-2.3566	-13.8263	177.0282	37.6600	55	0	0 
02180.382	1.9487	-0.3130	0.6133	0.1831	5.1880	2.1362	-2.4115	-13.9636	177.0007	37.7400	55	0	0 
02180.384	1.2322	-0.1968	0.4529	-0.4272	17.0288	-0.3052	-2.4554	-14.0405	176.9678	37.7400	56	0	0 
02180.405	1.2322	-0.1968	0.4529	-0.4272	17.0288	-0.3052	-2.5049	-14.1174	176.9348	37.7100	56	0	0 
02180.405	1.2322	-0.1968	0.4529	-0.4272	17.0288	-0.3052	-2.5488	-14.1888	176.8964	37.7100	55	0	0 
02180.413	1.2322	-0.1968	0.4529	-0.4272	17.0288	-0.3052	-2.5928	-14.2657	176.8634	37.7100	57	0	0 
02180.447	1.2322	-0.1968	0.4529	-0.4272	17.0288	-0.3052	-2.6422	-14.3372	176.8304	37.7000	58	0	0 
02180.456	1.2322	-0.1968	0.4529	-0.4272	17.0288	-0.3052	-2.6862	-14.4141	176.7920	37.7000	59	0	0 
02180.456	1.2322	-0.1968	0.4529	-0.4272	17.0288	-0.3052	-2.7301	-14.4910	176.7590	37.6800	60	0	0 
02180.465	1.2322	-0.1968	0.4529	-0.4272	17.0288	-0.3052	-2.7740	-14.5624	176.7261	37.6800	61	0	0 
02180.479	0.5154	-0.0808	0.2725	-1.4648	28.2593	-3.0518	-2.8070	-14.5624	176.6876	37.7500	63	0	0 
02180.479	0.5154	-0.0808	0.2725	-1.4648	28.2593	-3.0518	-2.8400	-14.5624	176.6492	37.7500	63	0	0 
02180.486	0.5154	-0.0808	0.2725	-1.4648	28.2593	-3.0518	-2.8729	-14.5679	176.6107	37.6900	64	0	0 
02180.493	0.5154	-0.0808	0.2725	-1.4648	28.2593	-3.0518	-2.9004	-14.5679	176.5668	37.6900	64	0	0 
02180.493	0.5154	-0.0808	0.2725	-1.4648	28.2593	-3.0518	-2.9333	-14.5679	176.5283	37.7500	65	0	0 
02180.502	0.5154	-0.0808	0.2725	-1.4648	28.2593	-3.0518	-2.9663	-14.5679	176.4899	37.7500	65	0	0 
02180.521	0.5154	-0.0808	0.2725	-1.4648	28.2593	-3.0518	-2.9938	-14.5679	176.4514	37.7100	65	0	0 
02180.521	0.5154	-0.0808	0.2725	-1.4648	28.2593	-3.0518	-3.0267	-14.5734	176.4130	37.7100	65	0	0 
02180.531	-0.0234	0.0066	0.1287	-2.7466	37.1094	-5.1270	-3.0103	-14.3207	176.3800	37.7000	65	0	0 
02180.536	-0.0234	0.0066	0.1287	-2.7466	37.1094	-5.1270	-2.9993	-14.0680	176.3416	37.7000	65	0	0 
02180.536	-0.0234	0.0066	0.1287	-2.7466	37.1094	-5.1270	-2.9828	-13.8208	176.3086	37.7500	65	0	0 
02180.538	-0.0234	0.0066	0.1287	-2.7466	37.1094	-5.1270	-2.9718	-13.5736	176.2756	37.7500	65	0	0 
02180.545	-0.0234	0.0066	0.1287	-2.7466	37.1094	-5.1270	-2.9553	-13.3209	176.2372	37.7500	66	0	0 
02180.583	-0.0234	0.0066	0.1287	-2.7466	37.1094	-5.1270	-2.9443	-13.0737	176.2042	37.8100	67	0	0 
02180.583	-0.0234	0.0066	0.1287	-2.7466	37.1094	-5.1270	-2.9279	-12.8265	176.1713	37.8100	67	0	0 
02180.585	-0.0234	0.0066	0.1287	-2.7466	37.1094	-5.1270	-2.9169	-12.5848	176.1328	37.7100	67	0	0 
02180.587	-0.3354	0.0576	0.0449	-3.9673	42.5415	-5.7983	-2.7905	-12.1564	175.9845	37.7100	67	0	0 
02180.587	-0.3354	0.0576	0.0449	-3.9673	42.5415	-5.7983	-2.6697	-11.7334	175.8417	37.7600	66	0	0 
02180.650	-0.3354	0.0576	0.0449	-3.9673	42.5415	-5.7983	-2.5433	-11.3104	175.6934	37.7600	67	0	0 
02180.659	-0.3354	0.0576	0.0449	-3.9673	42.5415	-5.7983	-2.4225	-10.8820	175.5505	37.7400	68	0	0 
02180.659	-0.3354	0.0576	0.0449	-3.9673	42.5415	-5.7983	-2.3071	-10.4590	175.4077	37.7400	69	0	0 
02180.690	-0.3354	0.0576	0.0449	-3.9673	42.5415	-5.7983	-2.1863	-10.0360	175.2704	37.7500	70	0	0 
02180.701	-0.3354	0.0576	0.0449	-3.9673	42.5415	-5.7983	-2.0709	-9.6130	175.1276	37.7500	70	0	0 
02180.701	-0.3354	0.0576	0.0449	-3.9673	42.5415	-5.7983	-1.9556	-9.1956	174.9902	37.6400	71	0	0 
02180.746	-0.4526	0.0776	0.0193	-4.8218	44.0063	-4.9438	-1.7963	-8.7836	174.8145	37.6400	71	0	0 
02180.755	-0.4526	0.0776	0.0193	-4.8218	44.0063	-4.9438	-1.6425	-8.3771	174.6387	37.7600	71	0	0 
02180.755	-0.4526	0.0776	0.0193	-4.8218	44.0063	-4.9438	-1.4886	-7.9706	174.4684	37.7600	71	0	0 
02180.760	-0.4526	0.0776	0.0193	-4.8218	44.0063	-4.9438	-1.3348	-7.5641	174.2981	37.7600	71	0	0 
02180.763	-0.4526	0.0776	0.0193	-4.8218	44.0063	-4.9438	-1.1810	-7.1576	174.1278	37.7600	70	0	0 
02180.777	-0.4526	0.0776	0.0193	-4.8218	44.0063	-4.9438	-1.0327	-6.7511	173.9630	37.7600	70	0	0 
02180.777	-0.4526	0.0776	0.0193	-4.8218	44.0063	-4.9438	-0.8789	-6.3391	173.7927	37.7600	71	0	0 
02180.779	-0.4526	0.0776	0.0193	-4.8218	44.0063	-4.9438	-0.7361	-5.9326	173.6334	37.7600	71	0	0 
02180.789	-0.4443	0.0771	0.0422	-5.1270	41.9922	-2.9907	-0.6207	-5.5261	173.5071	37.7200	71	0	0 
02180.789	-0.4443	0.0771	0.0422	-5.1270	41.9922	-2.9907	-0.5054	-5.1141	173.3807	37.7200	72	0	0 
02180.796	-0.4443	0.0771	0.0422	-5.1270	41.9922	-2.9907	-0.3900	-4.7076	173.2599	37.7700	72	0	0 
02180.828	-0.4443	0.0771	0.0422	-5.1270	41.9922	-2.9907	-0.2802	-4.3011	173.1390	37.7700	73	0	0 
02180.828	-0.4443	0.0771	0.0422	-5.1270	41.9922	-2.9907	-0.1703	-3.8947	173.0182	37.6800	73	0	0 
02180.859	-0.4443	0.0771	0.0422	-5.1270	41.9922	-2.9907	-0.0604	-3.4882	172.9028	37.6800	72	0	0 
02180.876	-0.4443	0.0771	0.0422	-5.1270	41.9922	-2.9907	0.0439	-3.0817	172.7820	37.7600	69	0	0 
02180.876	-0.4443	0.0771	0.0422	-5.1270	41.9922	-2.9907	0.1538	-2.6752	172.6666	37.7600	67	0	0 
02180.907	-0.4055	0.0225	0.2422	-3.9063	33.2031	-0.3662	0.1428	-2.3346	172.6721	37.8100	66	0	0 
02181.033	-0.4055	0.0225	0.2422	-3.9063	33.2031	-0.3662	0.1263	-1.9995	172.6776	37.8100	65	0	0 
02181.164	-0.4055	0.0225	0.2422	-3.9063	33.2031	-0.3662	0.1154	-1.6644	172.6831	37.6800	63	0	0 
02181.164	-0.4055	0.0225	0.2422	-3.9063	33.2031	-0.3662	0.1044	-1.3293	172.6886	37.6800	61	0	0 
02181.164	-0.4055	0.0225	0.2422	-3.9063	33.2031	-0.3662	0.0934	-0.9998	172.6941	37.6800	61	0	0 
02181.215	-0.4055	0.0225	0.2422	-3.9063	33.2031	-0.3662	0.0824	-0.6647	172.6996	37.7300	61	0	0 
02181.215	-0.4055	0.0225	0.2422	-3.9063	33.2031	-0.3662	0.0714	-0.3351	172.7051	37.7300	61	0	0 
02181.215	-0.4055	0.0225	0.2422	-3.9063	33.2031	-0.3662	0.0604	-0.0055	172.7106	37.7500	60	0	0 
02181.288	-0.4495	0.0781	0.4124	0.6714	16.7847	2.2583	0.0879	0.2032	172.7216	37.7500	60	0	0 
02181.288	-0.4495	0.0781	0.4124	0.6714	16.7847	2.2583	0.1154	0.4175	172.7380	37.8400	60	0	0 
02181.288	-0.4495	0.0781	0.4124	0.6714	16.7847	2.2583	0.1428	0.6317	172.7490	37.8400	60	0	0 
02181.342	-0.4495	0.0781	0.4124	0.6714	16.7847	2.2583	0.1703	0.8459	172.7655	37.7500	61	0	0 
02181.342	-0.4495	0.0781	0.4124	0.6714	16.7847	2.2583	0.2032	1.0602	172.7820	37.7500	61	0	0 
02181.342	-0.4495	0.0781	0.4124	0.6714	16.7847	2.2583	0.2307	1.2744	172.7930	37.6800	62	0	0 
02181.371	-0.4495	0.0781	0.4124	0.6714	16.7847	2.2583	0.2582	1.4832	172.8094	37.6800	62	0	0 
02181.371	-0.4495	0.0781	0.4124	0.6714	16.7847	2.2583	0.2856	1.6974	172.8204	37.7000	63	0	0 
02181.371	-0.4177	0.0454	0.5781	7.1411	1.0376	3.9673	0.3296	1.7963	172.8534	37.7000	63	0	0 
02181.383	-0.4177	0.0454	0.5781	7.1411	1.0376	3.9673	0.3790	1.8951	172.8864	37.7500	63	0	0 
02181.383	-0.4177	0.0454	0.5781	7.1411	1.0376	3.9673	0.4230	1.9940	172.9138	37.7500	63	0	0 
02181.383	-0.4177	0.0454	0.5781	7.1411	1.0376	3.9673	0.4669	2.0929	172.9468	37.6900	63	0	0 
02181.396	-0.4177	0.0454	0.5781	7.1411	1.0376	3.9673	0.5109	2.1918	172.9797	37.6900	63	0	0 
02181.396	-0.4177	0.0454	0.5781	7.1411	1.0376	3.9673	0.5603	2.2906	173.0072	37.6900	63	0	0 
02181.396	-0.4177	0.0454	0.5781	7.1411	1.0376	3.9673	0.6042	2.3895	173.0402	37.7000	63	0	0 
02181.461	-0.4177	0.0454	0.5781	7.1411	1.0376	3.9673	0.6482	2.4884	173.0676	37.7000	64	0	0 
02181.461	-0.4399	0.1011	0.6223	11.0474	-7.6904	3.8452	0.7251	2.5378	173.0951	37.7200	64	0	0 
02181.461	-0.4399	0.1011	0.6223	11.0474	-7.6904	3.8452	0.8075	2.5928	173.1226	37.7200	65	0	0 
02181.494	-0.4399	0.1011	0.6223	11.0474	-7.6904	3.8452	0.8844	2.6422	173.1500	37.7900	66	0	0 
02181.494	-0.4399	0.1011	0.6223	11.0474	-7.6904	3.8452	0.9613	2.6917	173.1720	37.7900	66	0	0 
02181.568	-0.4399	0.1011	0.6223	11.0474	-7.6904	3.8452	1.0382	2.7466	173.1995	37.7400	65	0	0 
02181.568	-0.4399	0.1011	0.6223	11.0474	-7.6904	3.8452	1.1151	2.7960	173.2269	37.7400	66	0	0 
02181.568	-0.4399	0.1011	0.6223	11.0474	-7.6904	3.8452	1.1920	2.8455	173.2489	37.7800	66	0	0 
02181.602	-0.4399	0.1011	0.6223	11.0474	-7.6904	3.8452	1.2689	2.8949	173.2764	37.7800	67	0	0 
02181.602	-0.5540	0.0642	0.6316	9.2163	-4.6997	1.7090	1.3239	2.9773	173.2928	37.7300	67	0	0 
02181.602	-0.5540	0.0642	0.6316	9.2163	-4.6997	1.7090	1.3843	3.0597	173.3093	37.7300	68	0	0 
02181.670	-0.5540	0.0642	0.6316	9.2163	-4.6997	1.7090	1.4392	3.1421	173.3258	37.7100	68	0	0 
02181.670	-0.5540	0.0642	0.6316	9.2163	-4.6997	1.7090	1.4941	3.2245	173.3423	37.7100	67	0	0 
02181.670	-0.5540	0.0642	0.6316	9.2163	-4.6997	1.7090	1.5491	3.3069	173.3643	37.7100	67	0	0 
02181.735	-0.5540	0.0642	0.6316	9.2163	-4.6997	1.7090	1.6040	3.3893	173.3807	37.7100	67	0	0 
02181.735	-0.5540	0.0642	0.6316	9.2163	-4.6997	1.7090	1.6589	3.4717	173.3972	37.7100	67	0	0 
02181.735	-0.5540	0.0642	0.6316	9.2163	-4.6997	1.7090	1.7194	3.5541	173.4137	37.7500	67	0	0 
02181.777	-0.4819	0.0261	0.4897	0.6714	8.1787	-1.4038	1.7194	3.7079	173.4192	37.7500	66	0	0 
02181.777	-0.4819	0.0261	0.4897	0.6714	8.1787	-1.4038	1.7249	3.8617	173.4247	37.7800	66	0	0 
02181.777	-0.4819	0.0261	0.4897	0.6714	8.1787	-1.4038	1.7303	4.0155	173.4302	37.7800	65	0	0 
02181.846	-0.4819	0.0261	0.4897	0.6714	8.1787	-1.4038	1.7303	4.1693	173.4357	37.7500	65	0	0 
02181.846	-0.4819	0.0261	0.4897	0.6714	8.1787	-1.4038	1.7358	4.3231	173.4412	37.7500	65	0	0 
02181.846	-0.4819	0.0261	0.4897	0.6714	8.1787	-1.4038	1.7413	4.4769	173.4467	37.7400	65	0	0 
02181.933	-0.4819	0.0261	0.4897	0.6714	8.1787	-1.4038	1.7413	4.6307	173.4521	37.7400	64	0	0 
02181.933	-0.4819	0.0261	0.4897	0.6714	8.1787	-1.4038	1.7468	4.7845	173.4576	37.7500	64	0	0 
02181.933	-0.6321	-0.0735	0.5076	-10.2539	17.5171	-3.6011	1.6644	4.9988	173.4631	37.7500	65	0	0 
02181.948	-0.6321	-0.0735	0.5076	-10.2539	17.5171	-3.6011	1.5820	5.2130	173.4741	37.7200	63	0	0 
02181.948	-0.6321	-0.0735	0.5076	-10.2539	17.5171	-3.6011	1.4996	5.4272	173.4796	37.7200	62	0	0 
02181.948	-0.6321	-0.0735	0.5076	-10.2539	17.5171	-3.6011	1.4172	5.6415	173.4851	37.7100	61	0	0 
02181.975	-0.6321	-0.0735	0.5076	-10.2539	17.5171	-3.6011	1.3348	5.8502	173.4961	37.7100	59	0	0 
02181.975	-0.6321	-0.0735	0.5076	-10.2539	17.5171	-3.6011	1.2524	6.0645	173.5016	37.7600	59	0	0 
02181.993	-0.6321	-0.0735	0.5076	-10.2539	17.5171	-3.6011	1.1755	6.2732	173.5071	37.7600	59	0	0 
02181.993	-0.6321	-0.0735	0.5076	-10.2539	17.5171	-3.6011	1.0931	6.4874	173.5126	37.7600	58	0	0 
02181.993	-0.5093	-0.0808	0.6511	-16.4185	12.8174	-3.0518	0.9833	6.6357	173.5181	37.7100	57	0	0 
02182.021	-0.5093	-0.0808	0.6511	-16.4185	12.8174	-3.0518	0.8734	6.7841	173.5236	37.7100	56	0	0 
02182.021	-0.5093	-0.0808	0.6511	-16.4185	12.8174	-3.0518	0.7690	6.9324	173.5236	37.7100	54	0	0 
02182.021	-0.5093	-0.0808	0.6511	-16.4185	12.8174	-3.0518	0.6592	7.0807	173.5291	37.7100	53	0	0 
02182.035	-0.5093	-0.0808	0.6511	-16.4185	12.8174	-3.0518	0.5548	7.2290	173.5345	37.7700	52	0	0 
02182.035	-0.5093	-0.0808	0.6511	-16.4185	12.8174	-3.0518	0.4449	7.3773	173.5345	37.7700	52	0	0 
02182.035	-0.5093	-0.0808	0.6511	-16.4185	12.8174	-3.0518	0.3406	7.5256	173.5400	37.7200	51	0	0 
02182.074	-0.5093	-0.0808	0.6511	-16.4185	12.8174	-3.0518	0.2362	7.6685	173.5400	37.7200	51	0	0 
02182.074	-0.5779	-0.0649	0.7351	-13.9160	-4.3945	0.9766	0.1483	7.7289	173.5620	37.7600	50	0	0 
02182.074	-0.5779	-0.0649	0.7351	-13.9160	-4.3945	0.9766	0.0659	7.7893	173.5840	37.7600	49	0	0 
02182.102	-0.5779	-0.0649	0.7351	-13.9160	-4.3945	0.9766	-0.0165	7.8552	173.6060	37.7400	48	0	0 
02182.102	-0.5779	-0.0649	0.7351	-13.9160	-4.3945	0.9766	-0.0989	7.9156	173.6279	37.7400	47	0	0 
02182.102	-0.5779	-0.0649	0.7351	-13.9160	-4.3945	0.9766	-0.1813	7.9761	173.6499	37.7000	46	0	0 
02182.127	-0.5779	-0.0649	0.7351	-13.9160	-4.3945	0.9766	-0.2692	8.0365	173.6664	37.7000	45	0	0 
02182.127	-0.5779	-0.0649	0.7351	-13.9160	-4.3945	0.9766	-0.3516	8.0969	173.6884	37.7600	44	0	0 
02182.127	-0.5779	-0.0649	0.7351	-13.9160	-4.3945	0.9766	-0.4340	8.1573	173.7103	37.7600	43	0	0 
02182.144	-0.4890	-0.0496	0.9114	-6.1646	-23.8647	7.4463	-0.4669	8.0914	173.7598	37.7600	44	0	0 
02182.144	-0.4890	-0.0496	0.9114	-6.1646	-23.8647	7.4463	-0.4999	8.0255	173.8147	37.7400	44	0	0 
02182.145	-0.4890	-0.0496	0.9114	-6.1646	-23.8647	7.4463	-0.5328	7.9596	173.8641	37.7400	45	0	0 
02182.153	-0.4890	-0.0496	0.9114	-6.1646	-23.8647	7.4463	-0.5658	7.8937	173.9191	37.7000	45	0	0 
02182.153	-0.4890	-0.0496	0.9114	-6.1646	-23.8647	7.4463	-0.5988	7.8278	173.9685	37.7000	45	0	0 
02182.153	-0.4890	-0.0496	0.9114	-6.1646	-23.8647	7.4463	-0.6317	7.7618	174.0179	37.6900	45	0	0 
02182.182	-0.4890	-0.0496	0.9114	-6.1646	-23.8647	7.4463	-0.6647	7.7014	174.0729	37.6900	43	0	0 
02182.182	-0.4890	-0.0496	0.9114	-6.1646	-23.8647	7.4463	-0.6976	7.6355	174.1223	37.7500	42	0	0 
02182.187	-0.5259	-0.0491	0.9973	1.7700	-36.6821	14.8926	-0.6866	7.5092	174.2102	37.7500	41	0	0 
02182.187	-0.5259	-0.0491	0.9973	1.7700	-36.6821	14.8926	-0.6757	7.3773	174.2981	37.7400	40	0	0 
02182.187	-0.5259	-0.0491	0.9973	1.7700	-36.6821	14.8926	-0.6647	7.2510	174.3915	37.7400	38	0	0 
02182.203	-0.5259	-0.0491	0.9973	1.7700	-36.6821	14.8926	-0.6482	7.1246	174.4794	37.7000	36	0	0 
02182.203	-0.5259	-0.0491	0.9973	1.7700	-36.6821	14.8926	-0.6372	6.9983	174.5673	37.7000	35	0	0 
02182.203	-0.5259	-0.0491	0.9973	1.7700	-36.6821	14.8926	-0.6262	6.8719	174.6552	37.7200	34	0	0 
02182.208	-0.5259	-0.0491	0.9973	1.7700	-36.6821	14.8926	-0.6152	6.7456	174.7375	37.7200	34	0	0 
02182.208	-0.5259	-0.0491	0.9973	1.7700	-36.6821	14.8926	-0.6042	6.6193	174.8254	37.7200	34	0	0 
02182.208	-0.4966	0.0125	1.0122	7.8735	-38.8794	22.5220	-0.5493	6.4764	174.9518	37.7700	33	0	0 
02182.217	-0.4966	0.0125	1.0122	7.8735	-38.8794	22.5220	-0.4889	6.3336	175.0726	37.7700	32	0	0 
02182.217	-0.4966	0.0125	1.0122	7.8735	-38.8794	22.5220	-0.4340	6.1963	175.1935	37.7600	31	0	0 
02182.217	-0.4966	0.0125	1.0122	7.8735	-38.8794	22.5220	-0.3790	6.0535	175.3198	37.7600	30	0	0 
02182.250	-0.4966	0.0125	1.0122	7.8735	-38.8794	22.5220	-0.3241	5.9161	175.4407	37.7200	28	0	0 
02182.250	-0.4966	0.0125	1.0122	7.8735	-38.8794	22.5220	-0.2692	5.7788	175.5615	37.7200	27	0	0 
02182.250	-0.4966	0.0125	1.0122	7.8735	-38.8794	22.5220	-0.2197	5.6360	175.6769	37.7100	27	0	0 
02182.261	-0.4966	0.0125	1.0122	7.8735	-38.8794	22.5220	-0.1648	5.4987	175.7977	37.7100	26	0	0 
02182.261	-0.4673	-0.0022	1.0146	10.2539	-32.1655	29.1138	-0.0989	5.3888	175.9515	37.7300	26	0	0 
02182.261	-0.4673	-0.0022	1.0146	10.2539	-32.1655	29.1138	-0.0330	5.2789	176.1053	37.7300	25	0	0 
02182.282	-0.4673	-0.0022	1.0146	10.2539	-32.1655	29.1138	0.0275	5.1746	176.2537	37.7400	24	0	0 
02182.282	-0.4673	-0.0022	1.0146	10.2539	-32.1655	29.1138	0.0879	5.0647	176.4075	37.7400	23	0	0 
02182.282	-0.4673	-0.0022	1.0146	10.2539	-32.1655	29.1138	0.1538	4.9548	176.5558	37.7200	23	0	0 
02182.315	-0.4673	-0.0022	1.0146	10.2539	-32.1655	29.1138	0.2197	4.8450	176.7041	37.7200	23	0	0 
02182.315	-0.4673	-0.0022	1.0146	10.2539	-32.1655	29.1138	0.2802	4.7406	176.8524	37.7300	23	0	0 
02182.315	-0.4673	-0.0022	1.0146	10.2539	-32.1655	29.1138	0.3461	4.6307	177.0007	37.7300	22	0	0 
02182.342	-0.4104	0.0955	1.0432	10.1318	-22.7051	33.8745	0.4230	4.5593	177.1710	37.7300	21	0	0 
02182.342	-0.4104	0.0955	1.0432	10.1318	-22.7051	33.8745	2.5104	3.8177	-176.7590	37.7300	9	0	0 
02182.398	0.0085	-0.0200	0.9985	0.0000	-0.4272	-2.8076	2.4994	3.7958	-176.7920	37.7300	9	0	0 
02182.398	-0.0054	-0.0129	0.9993	0.1221	-0.4272	-1.8311	2.4884	3.7793	-176.8140	37.7300	9	0	0 
02182.398	-0.0054	-0.0129	0.9993	0.1221	-0.4272	-1.8311	2.4774	3.7573	-176.8414	37.7300	9	0	0 
02182.410	-0.0054	-0.0129	0.9993	0.1221	-0.4272	-1.8311	2.4719	3.7408	-176.8689	37.6700	9	0	0 
02182.410	-0.0054	-0.0129	0.9993	0.1221	-0.4272	-1.8311	2.4609	3.7244	-176.8909	37.6700	9	0	0 
02182.410	-0.0054	-0.0129	0.9993	0.1221	-0.4272	-1.8311	2.4554	3.7024	-176.9183	37.6700	9	0	0 
02182.429	-0.0054	-0.0129	0.9993	0.1221	-0.4272	-1.8311	2.4445	3.6859	-176.9458	37.7800	9	0	0 
02182.429	-0.0054	-0.0129	0.9993	0.1221	-0.4272	-1.8311	2.4335	3.6694	-176.9678	37.7800	9	0	0 
02182.429	-0.0054	-0.0129	0.9993	0.1221	-0.4272	-1.8311	2.4280	3.6475	-176.9952	37.7200	9	0	0 
02182.448	-0.0154	-0.0068	0.9998	0.1831	-0.3052	-0.8545	2.4225	3.6365	-177.0172	37.7200	9	0	0 
02182.448	-0.0154	-0.0068	0.9998	0.1831	-0.3052	-0.8545	2.4115	3.6200	-177.0337	37.7000	9	0	0 
02182.448	-0.0154	-0.0068	0.9998	0.1831	-0.3052	-0.8545	2.4060	3.6035	-177.0557	37.7000	10	0	0 
02182.482	-0.0154	-0.0068	0.9998	0.1831	-0.3052	-0.8545	2.4005	3.5870	-177.0776	37.7500	10	0	0 
02182.482	-0.0154	-0.0068	0.9998	0.1831	-0.3052	-0.8545	2.3950	3.5706	-177.0941	37.7500	9	0	0 
02182.482	-0.0154	-0.0068	0.9998	0.1831	-0.3052	-0.8545	2.3840	3.5541	-177.1161	37.7100	9	0	0 
02182.484	-0.0154	-0.0068	0.9998	0.1831	-0.3052	-0.8545	2.3785	3.5376	-177.1381	37.7100	9	0	0 
02182.484	-0.0154	-0.0068	0.9998	0.1831	-0.3052	-0.8545	2.3730	3.5266	-177.1545	37.7300	10	0	0 
02182.484	-0.0212	-0.0027	1.0000	0.1221	-0.1221	-0.1221	2.3676	3.5101	-177.1710	37.7300	10	0	0 
02182.492	-0.0212	-0.0027	1.0000	0.1221	-0.1221	-0.1221	2.3621	3.4937	-177.1875	37.7400	9	0	0 
02182.492	-0.0212	-0.0027	1.0000	0.1221	-0.1221	-0.1221	2.3566	3.4827	-177.2040	37.7400	9	0	0 
02182.492	-0.0212	-0.0027	1.0000	0.1221	-0.1221	-0.1221	2.3456	3.4662	-177.2205	37.7400	9	0	0 
02182.532	-0.0212	-0.0027	1.0000	0.1221	-0.1221	-0.1221	2.3401	3.4552	-177.2369	37.7500	9	0	0 
02182.532	-0.0212	-0.0027	1.0000	0.1221	-0.1221	-0.1221	2.3346	3.4442	-177.2534	37.7500	8	0	0 
02182.532	-0.0212	-0.0027	1.0000	0.1221	-0.1221	-0.1221	2.3291	3.4277	-177.2699	37.7100	8	0	0 
02182.545	-0.0212	-0.0027	1.0000	0.1221	-0.1221	-0.1221	2.3236	3.4167	-177.2809	37.7100	8	0	0 
02182.545	-0.0229	-0.0007	0.9998	0.1221	0.0000	0.2441	2.3181	3.4003	-177.2974	37.7500	9	0	0 
02182.556	-0.0229	-0.0007	0.9998	0.1221	0.0000	0.2441	2.3126	3.3893	-177.3138	37.7500	9	0	0 
02182.556	-0.0229	-0.0007	0.9998	0.1221	0.0000	0.2441	2.3071	3.3783	-177.3248	37.6800	10	0	0 
02182.556	-0.0229	-0.0007	0.9998	0.1221	0.0000	0.2441	2.3016	3.3618	-177.3358	37.6800	10	0	0 
02182.578	-0.0229	-0.0007	0.9998	0.1221	0.0000	0.2441	2.2961	3.3508	-177.3523	37.7500	10	0	0 
02182.578	-0.0229	-0.0007	0.9998	0.1221	0.0000	0.2441	2.2906	3.3398	-177.3633	37.7500	10	0	0 
02182.578	-0.0229	-0.0007	0.9998	0.1221	0.0000	0.2441	2.2852	3.3289	-177.3798	37.7400	10	0	0 
02182.589	-0.0229	-0.0007	0.9998	0.1221	0.0000	0.2441	2.2797	3.3124	-177.3907	37.7400	10	0	0 
02182.589	-0.0225	-0.0005	0.9995	0.0610	0.0000	0.3662	2.2742	3.3014	-177.4072	37.7500	10	0	0 
02182.589	-0.0225	-0.0005	0.9995	0.0610	0.0000	0.3662	2.2687	3.2904	-177.4182	37.7500	10	0	0 
02182.630	-0.0225	-0.0005	0.9995	0.0610	0.0000	0.3662	2.2632	3.2739	-177.4292	37.6700	10	0	0 
02182.630	-0.0225	-0.0005	0.9995	0.0610	0.0000	0.3662	2.2577	3.2629	-177.4457	37.6700	11	0	0 
02182.630	-0.0225	-0.0005	0.9995	0.0610	0.0000	0.3662	2.2522	3.2520	-177.4567	37.6700	12	0	0 
02182.658	-0.0225	-0.0005	0.9995	0.0610	0.0000	0.3662	2.2467	3.2410	-177.4677	37.7000	13	0	0 
02182.658	-0.0225	-0.0005	0.9995	0.0610	0.0000	0.3662	2.2412	3.2245	-177.4841	37.7000	13	0	0 
02182.658	-0.0225	-0.0005	0.9995	0.0610	0.0000	0.3662	2.2357	3.2135	-177.4951	37.7900	13	0	0 
02182.660	-0.0205	-0.0012	0.9990	0.0000	0.0000	0.3662	2.2302	3.2025	-177.5061	37.7900	13	0	0 
02182.660	-0.0205	-0.0012	0.9990	0.0000	0.0000	0.3662	2.2247	3.1915	-177.5171	37.7700	12	0	0 
02182.660	-0.0205	-0.0012	0.9990	0.0000	0.0000	0.3662	2.2192	3.1750	-177.5336	37.7700	11	0	0 
02182.674	-0.0205	-0.0012	0.9990	0.0000	0.0000	0.3662	2.2137	3.1641	-177.5446	37.7700	10	0	0 
02182.674	-0.0205	-0.0012	0.9990	0.0000	0.0000	0.3662	2.2083	3.1531	-177.5555	37.7700	9	0	0 
02182.674	-0.0205	-0.0012	0.9990	0.0000	0.0000	0.3662	2.2028	3.1421	-177.5720	37.7300	8	0	0 
02182.714	-0.0205	-0.0012	0.9990	0.0000	0.0000	0.3662	2.1973	3.1256	-177.5830	37.7300	8	0	0 
02182.714	-0.0205	-0.0012	0.9990	0.0000	0.0000	0.3662	2.1918	3.1146	-177.5940	37.6700	7	0	0 
02182.714	-0.0183	-0.0024	0.9988	0.0000	0.0000	0.2441	2.1863	3.1036	-177.6050	37.6700	8	0	0 
02182.736	-0.0183	-0.0024	0.9988	0.0000	0.0000	0.2441	2.1808	3.0927	-177.6215	37.7000	8	0	0 
02182.736	-0.0183	-0.0024	0.9988	0.0000	0.0000	0.2441	2.1753	3.0762	-177.6324	37.7000	7	0	0 
02182.746	-0.0183	-0.0024	0.9988	0.0000	0.0000	0.2441	2.1698	3.0652	-177.6434	37.7400	6	0	0 
02182.746	-0.0183	-0.0024	0.9988	0.0000	0.0000	0.2441	2.1643	3.0542	-177.6599	37.7400	7	0	0 
02182.746	-0.0183	-0.0024	0.9988	0.0000	0.0000	0.2441	2.1588	3.0432	-177.6709	37.7400	8	0	0 
02182.756	-0.0183	-0.0024	0.9988	0.0000	0.0000	0.2441	2.1478	3.0267	-177.6819	37.7600	7	0	0 
02182.756	-0.0183	-0.0024	0.9988	0.0000	0.0000	0.2441	2.1423	3.0157	-177.6984	37.7600	7	0	0 
02182.756	-0.0166	-0.0037	0.9985	0.0000	0.0000	0.1221	2.1368	3.0048	-177.7094	37.7700	8	0	0 
02182.776	-0.0166	-0.0037	0.9985	0.0000	0.0000	0.1221	2.1313	2.9883	-177.7203	37.7700	9	0	0 
02182.776	-0.0166	-0.0037	0.9985	0.0000	0.0000	0.1221	2.1259	2.9773	-177.7368	37.7400	10	0	0 
02182.776	-0.0166	-0.0037	0.9985	0.0000	0.0000	0.1221	2.1204	2.9663	-177.7478	37.7400	10	0	0 
02182.791	-0.0166	-0.0037	0.9985	0.0000	0.0000	0.1221	2.1149	2.9553	-177.7588	37.7800	11	0	0 
02182.791	-0.0166	-0.0037	0.9985	0.0000	0.0000	0.1221	2.1094	2.9388	-177.7753	37.7800	12	0	0 
02182.791	-0.0166	-0.0037	0.9985	0.0000	0.0000	0.1221	2.1039	2.9279	-177.7863	37.7300	12	0	0 
02182.805	-0.0166	-0.0037	0.9985	0.0000	0.0000	0.1221	2.0984	2.9169	-177.8027	37.7300	13	0	0 
02182.805	-0.0156	-0.0046	0.9985	0.0000	0.0000	0.0000	2.0929	2.9059	-177.8137	37.7800	13	0	0 
02182.805	-0.0156	-0.0046	0.9985	0.0000	0.0000	0.0000	2.0874	2.8894	-177.8247	37.7800	13	0	0 
02182.813	-0.0156	-0.0046	0.9985	0.0000	0.0000	0.0000	2.0819	2.8784	-177.8412	37.7400	13	0	0 
02182.813	-0.0156	-0.0046	0.9985	0.0000	0.0000	0.0000	2.0709	2.8674	-177.8522	37.7400	13	0	0 
02182.813	-0.0156	-0.0046	0.9985	0.0000	0.0000	0.0000	2.0654	2.8564	-177.8687	37.7700	12	0	0 
02182.825	-0.0156	-0.0046	0.9985	0.0000	0.0000	0.0000	2.0599	2.8400	-177.8796	37.7700	12	0	0 
02182.825	-0.0156	-0.0046	0.9985	0.0000	0.0000	0.0000	2.0544	2.8290	-177.8961	37.7700	12	0	0 
02182.825	-0.0156	-0.0046	0.9985	0.0000	0.0000	0.0000	2.0490	2.8180	-177.9071	37.7700	11	0	0 
02182.830	-0.0149	-0.0046	0.9983	0.0000	0.0000	0.0000	2.0435	2.8070	-177.9181	37.7700	11	0	0 
02182.830	-0.0149	-0.0046	0.9983	0.0000	0.0000	0.0000	2.0380	2.7960	-177.9346	37.7100	11	0	0 
02182.830	-0.0149	-0.0046	0.9983	0.0000	0.0000	0.0000	2.0325	2.7795	-177.9456	37.7100	11	0	0 
02182.849	-0.0149	-0.0046	0.9983	0.0000	0.0000	0.0000	2.0270	2.7686	-177.9565	37.7800	11	0	0 
02182.849	-0.0149	-0.0046	0.9983	0.0000	0.0000	0.0000	2.0215	2.7576	-177.9730	37.7800	12	0	0 
02182.885	-0.0149	-0.0046	0.9983	0.0000	0.0000	0.0000	2.0160	2.7466	-177.9840	37.7800	12	0	0 
02182.885	-0.0149	-0.0046	0.9983	0.0000	0.0000	0.0000	2.0105	2.7301	-178.0005	37.7800	13	0	0 
02182.885	-0.0149	-0.0046	0.9983	0.0000	0.0000	0.0000	2.0050	2.7191	-178.0115	37.7800	13	0	0 
02182.889	-0.0149	-0.0046	0.9985	0.0000	0.0000	0.0000	1.9995	2.7081	-178.0225	37.7800	12	0	0 
02182.889	-0.0149	-0.0046	0.9985	0.0000	0.0000	0.0000	1.9940	2.6971	-178.0389	37.7700	12	0	0 
02182.889	-0.0149	-0.0046	0.9985	0.0000	0.0000	0.0000	1.9885	2.6862	-178.0499	37.7700	12	0	0 
02182.905	-0.0149	-0.0046	0.9985	0.0000	0.0000	0.0000	1.9775	2.6752	-178.0609	37.7400	12	0	0 
02182.905	-0.0149	-0.0046	0.9985	0.0000	0.0000	0.0000	1.9720	2.6587	-178.0719	37.7400	12	0	0 
02182.905	-0.0149	-0.0046	0.9985	0.0000	0.0000	0.0000	1.9666	2.6477	-178.0884	37.7400	12	0	0 
02182.925	-0.0149	-0.0046	0.9985	0.0000	0.0000	0.0000	1.9611	2.6367	-178.0994	37.8100	12	0	0 
02182.925	-0.0149	-0.0046	0.9985	0.0000	0.0000	0.0000	1.9556	2.6257	-178.1104	37.8100	12	0	0 
02182.925	-0.0151	-0.0042	0.9985	0.0000	0.0000	0.0000	1.9501	2.6147	-178.1268	37.7400	11	0	0 
02182.940	-0.0151	-0.0042	0.9985	0.0000	0.0000	0.0000	1.9446	2.6038	-178.1378	37.7400	11	0	0 
02182.940	-0.0151	-0.0042	0.9985	0.0000	0.0000	0.0000	1.9391	2.5928	-178.1488	37.7700	10	0	0 
02182.940	-0.0151	-0.0042	0.9985	0.0000	0.0000	0.0000	1.9336	2.5818	-178.1598	37.7700	9	0	0 
02182.945	-0.0151	-0.0042	0.9985	0.0000	0.0000	0.0000	1.9281	2.5653	-178.1763	37.7500	8	0	0 
02182.945	-0.0151	-0.0042	0.9985	0.0000	0.0000	0.0000	1.9226	2.5543	-178.1873	37.7500	9	0	0 
02182.945	-0.0151	-0.0042	0.9985	0.0000	0.0000	0.0000	1.9171	2.5433	-178.1982	37.7600	10	0	0 
02182.951	-0.0151	-0.0042	0.9985	0.0000	0.0000	0.0000	1.9171	2.5323	-178.2092	37.7600	10	0	0 
02182.951	-0.0156	-0.0037	0.9988	0.0000	0.0000	0.0000	1.4886	1.6040	-179.2090	37.7400	8	0	0 
02182.951	-0.0156	-0.0044	0.9985	0.0000	0.0000	0.0000	1.4832	1.5985	-179.2200	37.7400	8	0	0 
02182.956	-0.0156	-0.0044	0.9988	0.0000	0.0000	0.0000	1.4777	1.5875	-179.2255	37.7400	9	0	0 
02182.956	-0.0156	-0.0044	0.9988	0.0000	0.0000	0.0000	1.4777	1.5820	-179.2365	37.7700	9	0	0 
02182.956	-0.0156	-0.0044	0.9988	0.0000	0.0000	0.0000	1.4722	1.5710	-179.2419	37.7700	9	0	0 
02182.960	-0.0156	-0.0044	0.9988	0.0000	0.0000	0.0000	1.4667	1.5601	-179.2529	37.7500	9	0	0 
02182.960	-0.0156	-0.0044	0.9988	0.0000	0.0000	0.0000	1.4667	1.5546	-179.2639	37.7500	9	0	0 
02182.964	-0.0156	-0.0044	0.9988	0.0000	0.0000	0.0000	1.4612	1.5436	-179.2694	37.7500	9	0	0 
02182.964	-0.0156	-0.0044	0.9988	0.0000	0.0000	0.0000	1.4557	1.5381	-179.2804	37.7500	8	0	0 
02182.964	-0.0156	-0.0044	0.9988	0.0000	0.0000	0.0000	1.4557	1.5271	-179.2914	37.6700	8	0	0 
02182.970	-0.0159	-0.0044	0.9988	0.0000	0.0000	0.0000	1.4502	1.5216	-179.2969	37.6700	8	0	0 
02182.970	-0.0159	-0.0044	0.9988	0.0000	0.0000	0.0000	1.4447	1.5106	-179.3079	37.7000	9	0	0 
02182.970	-0.0159	-0.0044	0.9988	0.0000	0.0000	0.0000	1.4447	1.5051	-179.3134	37.7000	9	0	0 
02182.984	-0.0159	-0.0044	0.9988	0.0000	0.0000	0.0000	1.4392	1.4941	-179.3243	37.7000	9	0	0 
02182.984	-0.0159	-0.0044	0.9988	0.0000	0.0000	0.0000	1.4337	1.4886	-179.3353	37.7300	9	0	0 
02182.984	-0.0159	-0.0044	0.9988	0.0000	0.0000	0.0000	1.4282	1.4777	-179.3408	37.7300	10	0	0 
02183.019	-0.0159	-0.0044	0.9988	0.0000	0.0000	0.0000	1.4282	1.4722	-179.3518	37.7200	9	0	0 
02183.019	-0.0159	-0.0044	0.9988	0.0000	0.0000	0.0000	1.4227	1.4612	-179.3573	37.7200	8	0	0 
02183.019	-0.0161	-0.0042	0.9988	0.0000	0.0000	0.0000	1.4172	1.4557	-179.3683	37.7600	8	0	0 
02183.062	-0.0161	-0.0042	0.9988	0.0000	0.0000	0.0000	1.4172	1.4447	-179.3793	37.7600	8	0	0 
02183.062	-0.0161	-0.0042	0.9988	0.0000	0.0000	0.0000	1.4117	1.4392	-179.3848	37.8000	8	0	0 
02183.062	-0.0161	-0.0042	0.9988	0.0000	0.0000	0.0000	1.4063	1.4282	-179.3958	37.8000	7	0	0 
02183.085	-0.0161	-0.0042	0.9988	0.0000	0.0000	0.0000	1.4063	1.4227	-179.4012	37.8000	7	0	0 
02183.085	-0.0161	-0.0042	0.9988	0.0000	0.0000	0.0000	1.4008	1.4117	-179.4122	37.8000	6	0	0 
02183.085	-0.0161	-0.0042	0.9988	0.0000	0.0000	0.0000	1.3953	1.4063	-179.4177	37.7900	7	0	0 
02183.102	-0.0161	-0.0042	0.9988	0.0000	0.0000	0.0000	1.3953	1.4008	-179.4287	37.7900	8	0	0 
02183.102	-0.0161	-0.0042	0.9990	0.0000	0.0000	0.0000	1.3898	1.3898	-179.4342	37.6900	7	0	0 
02183.102	-0.0161	-0.0042	0.9990	0.0000	0.0000	0.0000	1.3898	1.3843	-179.4452	37.6900	6	0	0 
02183.117	-0.0161	-0.0042	0.9990	0.0000	0.0000	0.0000	1.3843	1.3733	-179.4562	37.6900	6	0	0 
02183.117	-0.0161	-0.0042	0.9990	0.0000	0.0000	0.0000	1.3788	1.3678	-179.4617	37.7300	6	0	0 
02183.117	-0.0161	-0.0042	0.9990	0.0000	0.0000	0.0000	1.3788	1.3568	-179.4727	37.7300	6	0	0 
02183.128	-0.0161	-0.0042	0.9990	0.0000	0.0000	0.0000	1.3733	1.3513	-179.4781	37.8000	6	0	0 
02183.128	-0.0161	-0.0042	0.9990	0.0000	0.0000	0.0000	1.3678	1.3458	-179.4891	37.8000	7	0	0 
02183.138	-0.0161	-0.0042	0.9990	0.0000	0.0000	0.0000	1.3678	1.3348	-179.4946	37.7000	9	0	0 
02183.138	-0.0161	-0.0042	0.9990	0.0000	0.0000	0.0000	1.3623	1.3293	-179.5056	37.7000	9	0	0 
02183.138	-0.0161	-0.0042	0.9990	0.0000	0.0000	0.0000	1.3568	1.3184	-179.5111	37.7100	10	0	0 
02183.159	-0.0161	-0.0042	0.9990	0.0000	0.0000	0.0000	1.3568	1.3129	-179.5221	37.7100	10	0	0 
02183.159	-0.0161	-0.0042	0.9990	0.0000	0.0000	0.0000	1.3513	1.3074	-179.5276	37.7600	10	0	0 
02183.159	-0.0161	-0.0042	0.9990	0.0000	0.0000	0.0000	1.3513	1.2964	-179.5386	37.7600	9	0	0 
02183.172	-0.0161	-0.0042	0.9990	0.0000	0.0000	0.0000	1.3458	1.2909	-179.5441	37.7000	9	0	0 
02183.172	-0.0161	-0.0042	0.9990	0.0000	0.0000	0.0000	1.3403	1.2799	-179.5551	37.7000	10	0	0 
02183.172	-0.0161	-0.0042	0.9990	0.0000	0.0000	0.0000	1.3403	1.2744	-179.5605	37.6600	11	0	0 
02183.189	-0.0159	-0.0042	0.9988	0.0000	0.0000	0.0000	1.3348	1.2689	-179.5660	37.6600	11	0	0 
02183.189	-0.0159	-0.0042	0.9988	0.0000	0.0000	0.0000	1.3348	1.2579	-179.5770	37.7100	11	0	0 
02183.189	-0.0159	-0.0042	0.9988	0.0000	0.0000	0.0000	1.3293	1.2524	-179.5825	37.7100	11	0	0 
02183.220	-0.0159	-0.0042	0.9988	0.0000	0.0000	0.0000	1.3239	1.2415	-179.5935	37.7100	11	0	0 
02183.220	-0.0159	-0.0042	0.9988	0.0000	0.0000	0.0000	1.3239	1.2360	-179.5990	37.7200	11	0	0 
02183.220	-0.0159	-0.0042	0.9988	0.0000	0.0000	0.0000	1.3184	1.2305	-179.6100	37.7200	12	0	0 
02183.253	-0.0159	-0.0042	0.9988	0.0000	0.0000	0.0000	1.3129	1.2195	-179.6155	37.8200	13	0	0 
02183.253	-0.0159	-0.0042	0.9988	0.0000	0.0000	0.0000	1.3129	1.2140	-179.6265	37.8200	13	0	0 
02183.253	-0.0159	-0.0042	0.9988	0.0000	0.0000	0.0000	1.3074	1.2085	-179.6320	37.7500	13	0	0 
02183.264	-0.0159	-0.0042	0.9988	0.0000	0.0000	0.0000	1.3074	1.1975	-179.6375	37.7500	13	0	0 
02183.264	-0.0159	-0.0042	0.9988	0.0000	0.0000	0.0000	1.3019	1.1920	-179.6484	37.7500	13	0	0 
02183.264	-0.0159	-0.0042	0.9988	0.0000	0.0000	0.0000	1.2964	1.1865	-179.6539	37.7500	12	0	0 
02183.288	-0.0159	-0.0042	0.9988	0.0000	0.0000	0.0000	1.2964	1.1755	-179.6649	37.7300	12	0	0 
02183.288	-0.0159	-0.0042	0.9988	0.0000	0.0000	0.0000	1.2909	1.1700	-179.6704	37.7300	11	0	0 
02183.288	-0.0159	-0.0042	0.9988	0.0000	0.0000	0.0000	1.2909	1.1646	-179.6814	37.7600	11	0	0 
02183.292	-0.0159	-0.0042	0.9988	0.0000	0.0000	0.0000	1.2854	1.1536	-179.6869	37.7600	11	0	0 
02183.292	-0.0156	-0.0042	0.9988	0.0000	0.0000	0.0000	1.2854	1.1481	-179.6924	37.7000	11	0	0 
02183.346	-0.0156	-0.0042	0.9988	0.0000	0.0000	0.0000	1.2799	1.1426	-179.7034	37.7000	12	0	0 
02183.346	-0.0156	-0.0042	0.9988	0.0000	0.0000	0.0000	1.2744	1.1316	-179.7089	37.7500	12	0	0 
02183.346	-0.0156	-0.0042	0.9988	0.0000	0.0000	0.0000	1.2744	1.1261	-179.7198	37.7500	12	0	0 
02183.419	-0.0156	-0.0042	0.9988	0.0000	0.0000	0.0000	1.2689	1.1206	-179.7253	37.7500	12	0	0 
02183.419	-0.0156	-0.0042	0.9988	0.0000	0.0000	0.0000	1.2689	1.1096	-179.7308	37.7000	12	0	0 
02183.419	-0.0156	-0.0042	0.9988	0.0000	0.0000	0.0000	1.2634	1.1041	-179.7418	37.7000	12	0	0 
02183.464	-0.0156	-0.0042	0.9988	0.0000	0.0000	0.0000	1.2634	1.0986	-179.7473	37.7800	12	0	0 
02183.464	-0.0156	-0.0042	0.9988	0.0000	0.0000	0.0000	1.2579	1.0876	-179.7528	37.7800	11	0	0 
02183.464	-0.0156	-0.0042	0.9988	0.0000	0.0000	0.0000	1.2524	1.0822	-179.7638	37.7500	11	0	0 
02183.466	-0.0156	-0.0042	0.9988	0.0000	0.0000	0.0000	1.2524	1.0767	-179.7693	37.7500	11	0	0 
02183.466	-0.0156	-0.0042	0.9988	0.0000	0.0000	0.0000	1.2469	1.0712	-179.7748	37.7000	11	0	0 
02183.466	-0.0156	-0.0042	0.9988	0.0000	0.0000	0.0000	1.2469	1.0602	-179.7858	37.7000	11	0	0 
02183.490	-0.0156	-0.0042	0.9988	0.0000	0.0000	0.0000	1.2415	1.0547	-179.7913	37.7100	11	0	0 
02183.490	-0.0156	-0.0042	0.9988	0.0000	0.0000	0.0000	1.2415	1.0492	-179.7968	37.7100	11	0	0 
02183.490	-0.0156	-0.0042	0.9988	0.0000	0.0000	0.0000	1.2360	1.0382	-179.8077	37.7900	11	0	0 
02183.533	-0.0156	-0.0039	0.9985	0.0000	0.0000	0.0000	1.2305	1.0327	-179.8132	37.7900	11	0	0 
02183.533	-0.0156	-0.0039	0.9985	0.0000	0.0000	0.0000	1.2305	1.0272	-179.8187	37.7400	10	0	0 
02183.533	-0.0156	-0.0039	0.9985	0.0000	0.0000	0.0000	1.2250	1.0217	-179.8297	37.7400	10	0	0 
02183.570	-0.0156	-0.0039	0.9985	0.0000	0.0000	0.0000	1.2250	1.0107	-179.8352	37.7400	10	0	0 
02183.570	-0.0156	-0.0039	0.9985	0.0000	0.0000	0.0000	1.2195	1.0052	-179.8407	37.7400	10	0	0 
02183.570	-0.0156	-0.0039	0.9985	0.0000	0.0000	0.0000	1.2195	0.9998	-179.8517	37.7400	10	0	0 
02183.585	-0.0156	-0.0039	0.9985	0.0000	0.0000	0.0000	1.2140	0.9943	-179.8572	37.7200	10	0	0 
02183.585	-0.0156	-0.0039	0.9985	0.0000	0.0000	0.0000	1.2140	0.9833	-179.8627	37.7200	10	0	0 
02183.585	-0.0159	-0.0039	0.9985	0.0000	0.0000	0.0000	1.2085	0.9778	-179.8737	37.8000	10	0	0 
02183.602	-0.0159	-0.0039	0.9985	0.0000	0.0000	0.0000	1.2085	0.9723	-179.8792	37.8000	10	0	0 
02183.602	-0.0159	-0.0039	0.9985	0.0000	0.0000	0.0000	1.2030	0.9668	-179.8846	37.7700	10	0	0 
02183.617	-0.0159	-0.0039	0.9985	0.0000	0.0000	0.0000	1.2030	0.9613	-179.8901	37.7700	11	0	0 
02183.617	-0.0159	-0.0039	0.9985	0.0000	0.0000	0.0000	1.1975	0.9503	-179.9011	37.6800	11	0	0 
02183.617	-0.0159	-0.0039	0.9985	0.0000	0.0000	0.0000	1.1975	0.9448	-179.9066	37.6800	11	0	0 
02183.659	-0.0159	-0.0039	0.9985	0.0000	0.0000	0.0000	1.1920	0.9393	-179.9121	37.7500	12	0	0 
02183.659	-0.0159	-0.0039	0.9985	0.0000	0.0000	0.0000	1.1920	0.9338	-179.9231	37.7500	11	0	0 
02183.659	-0.0161	-0.0039	0.9985	0.0000	0.0000	0.0000	1.1865	0.9283	-179.9286	37.7200	11	0	0 
02183.694	-0.0161	-0.0039	0.9985	0.0000	0.0000	0.0000	1.1810	0.9174	-179.9341	37.7200	11	0	0 
02183.694	-0.0161	-0.0039	0.9985	0.0000	0.0000	0.0000	1.1810	0.9119	-179.9396	37.7900	10	0	0 
02183.694	-0.0161	-0.0039	0.9985	0.0000	0.0000	0.0000	1.1755	0.9064	-179.9506	37.7900	10	0	0 
02183.697	-0.0161	-0.0039	0.9985	0.0000	0.0000	0.0000	1.1755	0.9009	-179.9561	37.7900	10	0	0 
02183.697	-0.0161	-0.0039	0.9985	0.0000	0.0000	0.0000	1.1700	0.8954	-179.9615	37.7500	10	0	0 
02183.697	-0.0161	-0.0039	0.9985	0.0000	0.0000	0.0000	1.1700	0.8844	-179.9670	37.7500	11	0	0 
02183.697	-0.0161	-0.0039	0.9985	0.0000	0.0000	0.0000	1.1646	0.8789	-179.9780	37.7600	12	0	0 
02183.697	-0.0164	-0.0037	0.9988	0.0000	0.0000	0.0000	1.1646	0.8734	-179.9835	37.7600	12	0	0 
02183.697	-0.0164	-0.0037	0.9988	0.0000	0.0000	0.0000	1.1591	0.8679	-179.9890	37.8300	12	0	0 
02183.743	-0.0164	-0.0037	0.9988	0.0000	0.0000	0.0000	1.1591	0.8624	-179.9945	37.8300	11	0	0 
02183.743	-0.0164	-0.0037	0.9988	0.0000	0.0000	0.0000	1.1536	0.8569	179.9890	37.7500	10	0	0 
02183.743	-0.0164	-0.0037	0.9988	0.0000	0.0000	0.0000	1.1536	0.8459	179.9835	37.7500	10	0	0 
02183.748	-0.0164	-0.0037	0.9988	0.0000	0.0000	0.0000	1.1481	0.8405	179.9780	37.8000	10	0	0 
02183.748	-0.0164	-0.0037	0.9988	0.0000	0.0000	0.0000	1.1481	0.8350	179.9725	37.8000	9	0	0 
02183.748	-0.0164	-0.0037	0.9988	0.0000	0.0000	0.0000	1.1481	0.8295	179.9670	37.7000	8	0	0 
02183.770	-0.0166	-0.0037	0.9988	0.0000	0.0000	0.0000	1.1426	0.8240	179.9561	37.7000	8	0	0 
02183.770	-0.0166	-0.0037	0.9988	0.0000	0.0000	0.0000	1.1426	0.8185	179.9506	37.6900	8	0	0 
02183.770	-0.0166	-0.0037	0.9988	0.0000	0.0000	0.0000	1.1371	0.8130	179.9451	37.6900	7	0	0 
02183.815	-0.0166	-0.0037	0.9988	0.0000	0.0000	0.0000	1.1371	0.8075	179.9396	37.7500	7	0	0 
02183.815	-0.0166	-0.0037	0.9988	0.0000	0.0000	0.0000	1.1316	0.7965	179.9341	37.7500	7	0	0 
02183.834	-0.0166	-0.0037	0.9988	0.0000	0.0000	0.0000	1.1316	0.7910	179.9231	37.7500	8	0	0 
02183.834	-0.0166	-0.0037	0.9988	0.0000	0.0000	0.0000	1.1261	0.7855	179.9176	37.6600	8	0	0 
02183.834	-0.0166	-0.0037	0.9988	0.0000	0.0000	0.0000	1.1261	0.7800	179.9121	37.6600	9	0	0 
02183.872	-0.0166	-0.0039	0.9990	0.0000	0.0000	0.0000	1.1206	0.7745	179.9066	37.7300	8	0	0 
02183.872	-0.0166	-0.0039	0.9990	0.0000	0.0000	0.0000	1.1206	0.7690	179.9011	37.7300	8	0	0 
02183.872	-0.0166	-0.0039	0.9990	0.0000	0.0000	0.0000	1.1151	0.7635	179.8956	37.7800	8	0	0 
02183.875	-0.0166	-0.0039	0.9990	0.0000	0.0000	0.0000	1.1151	0.7581	179.8846	37.7800	8	0	0 
02183.875	-0.0166	-0.0039	0.9990	0.0000	0.0000	0.0000	1.1096	0.7526	179.8792	37.7700	8	0	0 
02183.875	-0.0166	-0.0039	0.9990	0.0000	0.0000	0.0000	1.1096	0.7471	179.8737	37.7700	7	0	0 
02183.879	-0.0166	-0.0039	0.9990	0.0000	0.0000	0.0000	1.1041	0.7416	179.8682	37.7700	8	0	0 
02183.879	-0.0166	-0.0039	0.9990	0.0000	0.0000	0.0000	1.1041	0.7306	179.8627	37.7700	9	0	0 
02183.879	-0.0166	-0.0039	0.9990	0.0000	0.0000	0.0000	1.0986	0.7251	179.8572	37.7800	9	0	0 
02183.896	-0.0166	-0.0039	0.9990	0.0000	0.0000	0.0000	1.0986	0.7196	179.8462	37.7800	9	0	0 
02183.896	-0.0166	-0.0039	0.9990	0.0000	0.0000	0.0000	1.0986	0.7141	179.8407	37.7200	9	0	0 
02183.896	-0.0166	-0.0039	0.9990	0.0000	0.0000	0.0000	1.0931	0.7086	179.8352	37.7200	9	0	0 
02183.928	-0.0166	-0.0039	0.9990	0.0000	0.0000	0.0000	1.0931	0.7031	179.8297	37.7200	9	0	0 
02183.928	-0.0166	-0.0039	0.9990	0.0000	0.0000	0.0000	1.0876	0.6976	179.8242	37.7200	9	0	0 
02183.928	-0.0166	-0.0039	0.9990	0.0000	0.0000	0.0000	1.0876	0.6921	179.8187	37.7200	9	0	0 
02183.938	-0.0166	-0.0039	0.9990	0.0000	0.0000	0.0000	1.0822	0.6866	179.8132	37.7500	9	0	0 
02183.938	-0.0164	-0.0039	0.9988	0.0000	0.0000	0.0000	1.0822	0.6812	179.8077	37.7500	9	0	0 
02183.938	-0.0164	-0.0039	0.9988	0.0000	0.0000	0.0000	1.0767	0.6757	179.7968	37.7500	9	0	0 
02183.951	-0.0164	-0.0039	0.9988	0.0000	0.0000	0.0000	1.0767	0.6702	179.7913	37.7500	10	0	0 
02183.951	-0.0164	-0.0039	0.9988	0.0000	0.0000	0.0000	1.0712	0.6647	179.7858	37.7100	10	0	0 
02183.979	-0.0164	-0.0039	0.9988	0.0000	0.0000	0.0000	1.0712	0.6592	179.7803	37.7100	10	0	0 
02183.979	-0.0164	-0.0039	0.9988	0.0000	0.0000	0.0000	1.0712	0.6537	179.7748	37.7500	9	0	0 
02183.979	-0.0164	-0.0039	0.9988	0.0000	0.0000	0.0000	1.0657	0.6482	179.7693	37.7500	10	0	0 
02183.983	-0.0164	-0.0039	0.9988	0.0000	0.0000	0.0000	1.0657	0.6427	179.7638	37.6900	11	0	0 
02183.983	-0.0164	-0.0039	0.9988	0.0000	0.0000	0.0000	1.0602	0.6372	179.7583	37.6900	11	0	0 
02183.983	-0.0164	-0.0039	0.9988	0.0000	0.0000	0.0000	1.0602	0.6317	179.7528	37.7000	11	0	0 
02184.018	-0.0164	-0.0039	0.9988	0.0000	0.0000	0.0000	1.0547	0.6262	179.7473	37.7000	11	0	0 
02184.018	-0.0164	-0.0039	0.9988	0.0000	0.0000	0.0000	1.0547	0.6207	179.7363	37.7300	10	0	0 
02184.018	-0.0164	-0.0039	0.9988	0.0000	0.0000	0.0000	1.0492	0.6097	179.7308	37.7300	10	0	0 
02184.109	-0.0164	-0.0039	0.9988	0.0000	0.0000	0.0000	1.0492	0.6042	179.7253	37.7100	10	0	0 
02184.110	-0.0164	-0.0039	0.9988	0.0000	0.0000	0.0000	1.0492	0.5988	179.7198	37.7100	10	0	0 
02184.110	-0.0164	-0.0039	0.9988	0.0000	0.0000	0.0000	1.0437	0.5933	179.7144	37.7100	10	0	0 
02184.174	-0.0164	-0.0039	0.9985	0.0000	0.0000	0.0000	1.0437	0.5878	179.7089	37.7300	10	0	0 
02184.174	-0.0164	-0.0039	0.9985	0.0000	0.0000	0.0000	1.0382	0.5823	179.7034	37.7300	10	0	0 
02184.174	-0.0164	-0.0039	0.9985	0.0000	0.0000	0.0000	1.0382	0.5768	179.6979	37.7100	10	0	0 
02184.200	-0.0164	-0.0039	0.9985	0.0000	0.0000	0.0000	1.0327	0.5713	179.6924	37.7100	11	0	0 
02184.200	-0.0164	-0.0039	0.9985	0.0000	0.0000	0.0000	1.0327	0.5658	179.6869	37.7000	11	0	0 
02184.200	-0.0164	-0.0039	0.9985	0.0000	0.0000	0.0000	1.0327	0.5603	179.6814	37.7000	11	0	0 
02184.240	-0.0164	-0.0039	0.9985	0.0000	0.0000	0.0000	1.0272	0.5548	179.6759	37.7300	11	0	0 
02184.240	-0.0164	-0.0039	0.9985	0.0000	0.0000	0.0000	1.0272	0.5493	179.6704	37.7300	10	0	0 
02184.240	-0.0164	-0.0039	0.9985	0.0000	0.0000	0.0000	1.0217	0.5493	179.6649	37.8400	10	0	0 
02184.315	-0.0164	-0.0039	0.9985	0.0000	0.0000	0.0000	1.0217	0.5438	179.6594	37.8400	10	0	0 
02184.315	-0.0164	-0.0039	0.9985	0.0000	0.0000	0.0000	1.0162	0.5383	179.6539	37.6600	11	0	0 
02184.315	-0.0164	-0.0039	0.9985	0.0000	0.0000	0.0000	1.0162	0.5328	179.6484	37.6600	10	0	0 
02184.343	-0.0164	-0.0039	0.9985	0.0000	0.0000	0.0000	1.0162	0.5273	179.6429	37.6600	9	0	0 
02184.343	-0.0164	-0.0039	0.9985	0.0000	0.0000	0.0000	1.0107	0.5219	179.6375	37.6600	9	0	0 
02184.363	-0.0164	-0.0039	0.9985	0.0000	0.0000	0.0000	1.0107	0.5164	179.6320	37.6600	9	0	0 
02184.363	-0.0164	-0.0039	0.9985	0.0000	0.0000	0.0000	1.0052	0.5109	179.6210	37.7500	10	0	0 
02184.363	-0.0166	-0.0039	0.9985	0.0000	0.0000	0.0000	1.0052	0.5054	179.6155	37.7500	11	0	0 
02184.425	-0.0166	-0.0039	0.9985	0.0000	0.0000	0.0000	1.0052	0.4999	179.6100	37.7100	11	0	0 
02184.425	-0.0166	-0.0039	0.9985	0.0000	0.0000	0.0000	0.9998	0.4944	179.6045	37.7100	11	0	0 
02184.425	-0.0166	-0.0039	0.9985	0.0000	0.0000	0.0000	0.9998	0.4889	179.5990	37.7900	10	0	0 
02184.465	-0.0166	-0.0039	0.9985	0.0000	0.0000	0.0000	0.9943	0.4834	179.5935	37.7900	10	0	0 
02184.465	-0.0166	-0.0039	0.9985	0.0000	0.0000	0.0000	0.9943	0.4779	179.5880	37.7500	10	0	0 
02184.465	-0.0166	-0.0039	0.9985	0.0000	0.0000	0.0000	0.9943	0.4724	179.5825	37.7500	10	0	0 
02184.506	-0.0166	-0.0039	0.9985	0.0000	0.0000	0.0000	0.9888	0.4669	179.5770	37.6900	10	0	0 
02184.506	-0.0166	-0.0037	0.9988	0.0000	0.0000	0.0000	0.9888	0.4614	179.5715	37.6900	10	0	0 
02184.506	-0.0166	-0.0037	0.9988	0.0000	0.0000	0.0000	0.9833	0.4559	179.5660	37.7500	10	0	0 
02184.539	-0.0166	-0.0037	0.9988	0.0000	0.0000	0.0000	0.9833	0.4504	179.5605	37.7500	10	0	0 
02184.539	-0.0166	-0.0037	0.9988	0.0000	0.0000	0.0000	0.9833	0.4449	179.5551	37.6800	10	0	0 
02184.539	-0.0166	-0.0037	0.9988	0.0000	0.0000	0.0000	0.9778	0.4449	179.5551	37.6800	10	0	0 
02184.574	-0.0166	-0.0037	0.9988	0.0000	0.0000	0.0000	0.9778	0.4395	179.5496	37.6900	10	0	0 
02184.574	-0.0166	-0.0037	0.9988	0.0000	0.0000	0.0000	0.9723	0.4340	179.5441	37.6900	9	0	0 
02184.574	-0.0166	-0.0037	0.9988	0.0000	0.0000	0.0000	0.9723	0.4285	179.5386	37.6900	10	0	0 
02184.622	-0.0168	-0.0037	0.9990	0.0000	0.0000	0.0000	0.9723	0.4230	179.5331	37.7700	11	0	0 
02184.622	-0.0168	-0.0037	0.9990	0.0000	0.0000	0.0000	0.9668	0.4175	179.5276	37.7700	10	0	0 
02184.622	-0.0168	-0.0037	0.9990	0.0000	0.0000	0.0000	0.9668	0.4120	179.5221	37.7300	9	0	0 
02184.654	-0.0168	-0.0037	0.9990	0.0000	0.0000	0.0000	0.9668	0.4065	179.5166	37.7300	8	0	0 
02184.654	-0.0168	-0.0037	0.9990	0.0000	0.0000	0.0000	0.9613	0.4010	179.5111	37.7700	7	0	0 
02184.654	-0.0168	-0.0037	0.9990	0.0000	0.0000	0.0000	0.9613	0.3955	179.5056	37.7700	6	0	0 
02184.684	-0.0168	-0.0037	0.9990	0.0000	0.0000	0.0000	0.9558	0.3955	179.5001	37.7000	5	0	0 
02184.684	-0.0168	-0.0037	0.9990	0.0000	0.0000	0.0000	0.9558	0.3900	179.4946	37.7000	4	0	0 
02184.687	-0.0168	-0.0037	0.9993	0.0000	0.0000	0.0000	0.9558	0.3845	179.4891	37.7400	5	0	0 
02184.687	-0.0168	-0.0037	0.9993	0.0000	0.0000	0.0000	0.9503	0.3790	179.4836	37.7400	5	0	0 
02184.687	-0.0168	-0.0037	0.9993	0.0000	0.0000	0.0000	0.9503	0.3735	179.4781	37.7300	6	0	0 
02184.705	-0.0168	-0.0037	0.9993	0.0000	0.0000	0.0000	0.9503	0.3680	179.4727	37.7300	7	0	0 
02184.705	-0.0168	-0.0037	0.9993	0.0000	0.0000	0.0000	0.9448	0.3625	179.4672	37.7300	7	0	0 
02184.705	-0.0168	-0.0037	0.9993	0.0000	0.0000	0.0000	0.9448	0.3571	179.4617	37.7300	8	0	0 
02184.720	-0.0168	-0.0037	0.9993	0.0000	0.0000	0.0000	0.9448	0.3571	179.4562	37.8100	8	0	0 
02184.720	-0.0168	-0.0037	0.9993	0.0000	0.0000	0.0000	0.9393	0.3516	179.4507	37.8100	7	0	0 
02184.720	-0.0168	-0.0039	0.9993	0.0000	0.0000	0.0000	0.9393	0.3461	179.4507	37.8100	8	0	0 
02184.734	-0.0168	-0.0039	0.9993	0.0000	0.0000	0.0000	0.9338	0.3406	179.4452	37.7300	9	0	0 
02184.734	-0.0168	-0.0039	0.9993	0.0000	0.0000	0.0000	0.9338	0.3351	179.4397	37.7300	9	0	0 
02184.734	-0.0168	-0.0039	0.9993	0.0000	0.0000	0.0000	0.9338	0.3296	179.4342	37.6900	9	0	0 
02184.747	-0.0168	-0.0039	0.9993	0.0000	0.0000	0.0000	0.9283	0.3241	179.4287	37.6900	8	0	0 
02184.747	-0.0168	-0.0039	0.9993	0.0000	0.0000	0.0000	0.9283	0.3241	179.4232	37.7000	7	0	0 
02184.747	-0.0168	-0.0039	0.9993	0.0000	0.0000	0.0000	0.9283	0.3186	179.4177	37.7000	8	0	0 
02184.765	-0.0168	-0.0039	0.9993	0.0000	0.0000	0.0000	0.9229	0.3131	179.4122	37.7600	8	0	0 
02184.766	-0.0166	-0.0042	0.9990	0.0000	0.0000	0.0000	0.9229	0.3076	179.4067	37.7600	7	0	0 
02184.766	-0.0166	-0.0042	0.9990	0.0000	0.0000	0.0000	0.9174	0.3021	179.4012	37.7800	7	0	0 
02184.778	-0.0166	-0.0042	0.9990	0.0000	0.0000	0.0000	0.9174	0.2966	179.3958	37.7800	9	0	0 
02184.778	-0.0166	-0.0042	0.9990	0.0000	0.0000	0.0000	0.9174	0.2966	179.3958	37.7500	10	0	0 
02184.778	-0.0166	-0.0042	0.9990	0.0000	0.0000	0.0000	0.9119	0.2911	179.3903	37.7500	11	0	0 
02184.813	-0.0166	-0.0042	0.9990	0.0000	0.0000	0.0000	0.9119	0.2856	179.3848	37.7300	12	0	0 
02184.813	-0.0166	-0.0042	0.9990	0.0000	0.0000	0.0000	0.9119	0.2802	179.3793	37.7300	11	0	0 
02184.813	-0.0166	-0.0042	0.9990	0.0000	0.0000	0.0000	0.9064	0.2747	179.3738	37.7000	11	0	0 
02184.847	-0.0164	-0.0042	0.9990	0.0000	0.0000	0.0000	0.9064	0.2692	179.3683	37.7000	10	0	0 
02184.847	-0.0164	-0.0042	0.9990	0.0000	0.0000	0.0000	0.9064	0.2692	179.3628	37.7000	10	0	0 
02184.863	-0.0164	-0.0042	0.9990	0.0000	0.0000	0.0000	0.9009	0.2637	179.3573	37.8000	9	0	0 
02184.863	-0.0164	-0.0042	0.9990	0.0000	0.0000	0.0000	0.9009	0.2582	179.3573	37.8000	9	0	0 
02184.863	-0.0164	-0.0042	0.9990	0.0000	0.0000	0.0000	0.9009	0.2527	179.3518	37.6900	9	0	0 
02184.877	-0.0164	-0.0042	0.9990	0.0000	0.0000	0.0000	0.8954	0.2472	179.3463	37.6900	10	0	0 
02184.877	-0.0164	-0.0042	0.9990	0.0000	0.0000	0.0000	0.8954	0.2417	179.3408	37.7200	10	0	0 
02184.877	-0.0164	-0.0042	0.9990	0.0000	0.0000	0.0000	0.8899	0.2417	179.3353	37.7200	10	0	0 
02184.882	-0.0161	-0.0042	0.9985	0.0000	0.0000	0.0000	0.8899	0.2362	179.3298	37.8100	9	0	0 
02184.882 
02184.882	-0.0161	-0.0046	0.9985	0.0000	0.0000	0.0000	0.7361	-0.1373	178.9453	37.7900	10	0	0 
02184.914	-0.0161	-0.0046	0.9985	0.0000	0.0000	0.0000	0.7306	-0.1373	178.9398	37.6600	10	0	0 
02184.914	-0.0161	-0.0046	0.9985	0.0000	0.0000	0.0000	0.7306	-0.1428	178.9343	37.6600	10	0	0 
02184.914	-0.0161	-0.0046	0.9985	0.0000	0.0000	0.0000	0.7306	-0.1483	178.9343	37.7200	10	0	0 
02184.950	-0.0161	-0.0046	0.9985	0.0000	0.0000	0.0000	0.7306	-0.1483	178.9288	37.7200	10	0	0 
02184.950	-0.0161	-0.0046	0.9985	0.0000	0.0000	0.0000	0.7251	-0.1538	178.9233	37.7500	10	0	0 
02184.950	-0.0161	-0.0046	0.9985	0.0000	0.0000	0.0000	0.7251	-0.1538	178.9233	37.7500	11	0	0 
02184.967	-0.0161	-0.0046	0.9985	0.0000	0.0000	0.0000	0.7251	-0.1593	178.9178	37.7800	11	0	0 
02184.967	-0.0161	-0.0046	0.9985	0.0000	0.0000	0.0000	0.7251	-0.1648	178.9124	37.7800	11	0	0 
02184.967	-0.0164	-0.0044	0.9985	0.0000	0.0000	0.0000	0.7196	-0.1648	178.9124	37.7100	11	0	0 
02184.972	-0.0164	-0.0044	0.9985	0.0000	0.0000	0.0000	0.7196	-0.1703	178.9069	37.7100	11	0	0 
02184.972	-0.0164	-0.0044	0.9985	0.0000	0.0000	0.0000	0.7196	-0.1703	178.9069	37.7900	10	0	0 
02184.972	-0.0164	-0.0044	0.9985	0.0000	0.0000	0.0000	0.7196	-0.1758	178.9014	37.7900	9	0	0 
02184.976	-0.0164	-0.0044	0.9985	0.0000	0.0000	0.0000	0.7141	-0.1813	178.8959	37.7900	9	0	0 
02184.976	-0.0164	-0.0044	0.9985	0.0000	0.0000	0.0000	0.7141	-0.1813	178.8959	37.7400	9	0	0 
02184.976	-0.0164	-0.0044	0.9985	0.0000	0.0000	0.0000	0.7141	-0.1868	178.8904	37.7400	9	0	0 
02184.983	-0.0164	-0.0044	0.9985	0.0000	0.0000	0.0000	0.7141	-0.1868	178.8849	37.6900	9	0	0 
02184.983	-0.0164	-0.0042	0.9988	0.0000	0.0000	0.0000	0.7086	-0.1923	178.8849	37.6900	9	0	0 
02184.986	-0.0164	-0.0042	0.9988	0.0000	0.0000	0.0000	0.7086	-0.1978	178.8794	37.7400	10	0	0 
02184.986	-0.0164	-0.0042	0.9988	0.0000	0.0000	0.0000	0.7086	-0.1978	178.8794	37.7400	11	0	0 
02184.986	-0.0164	-0.0042	0.9988	0.0000	0.0000	0.0000	0.7086	-0.2032	178.8739	37.7400	11	0	0 
02184.992	-0.0164	-0.0042	0.9988	0.0000	0.0000	0.0000	0.7031	-0.2032	178.8684	37.7400	11	0	0 
02184.992	-0.0164	-0.0042	0.9988	0.0000	0.0000	0.0000	0.7031	-0.2087	178.8684	37.7500	11	0	0 
02184.992	-0.0164	-0.0042	0.9988	0.0000	0.0000	0.0000	0.7031	-0.2087	178.8629	37.7500	11	0	0 
02184.997	-0.0164	-0.0042	0.9988	0.0000	0.0000	0.0000	0.7031	-0.2142	178.8629	37.7300	11	0	0 
02184.998	-0.0161	-0.0039	0.9988	0.0000	0.0000	0.0000	0.6976	-0.2197	178.8574	37.7300	11	0	0 
02184.998	-0.0161	-0.0039	0.9988	0.0000	0.0000	0.0000	0.6976	-0.2197	178.8519	37.7000	11	0	0 
02185.008	-0.0161	-0.0039	0.9988	0.0000	0.0000	0.0000	0.6976	-0.2252	178.8519	37.7000	11	0	0 
02185.008	-0.0161	-0.0039	0.9988	0.0000	0.0000	0.0000	0.6976	-0.2252	178.8464	37.7600	11	0	0 
02185.008	-0.0161	-0.0039	0.9988	0.0000	0.0000	0.0000	0.6921	-0.2307	178.8464	37.7600	11	0	0 
02185.011	-0.0161	-0.0039	0.9988	0.0000	0.0000	0.0000	0.6921	-0.2307	178.8409	37.7600	11	0	0 
02185.011	-0.0161	-0.0039	0.9988	0.0000	0.0000	0.0000	0.6921	-0.2362	178.8409	37.7800	11	0	0 
02185.011	-0.0161	-0.0039	0.9988	0.0000	0.0000	0.0000	0.6921	-0.2417	178.8354	37.7800	11	0	0 
02185.099	-0.0161	-0.0039	0.9990	0.0000	0.0000	0.0000	0.6921	-0.2417	178.8300	37.7300	11	0	0 
02185.099	-0.0161	-0.0039	0.9990	0.0000	0.0000	0.0000	0.6866	-0.2472	178.8300	37.7300	11	0	0 
02185.099	-0.0161	-0.0039	0.9990	0.0000	0.0000	0.0000	0.6866	-0.2472	178.8245	37.7000	10	0	0 
02185.119	-0.0161	-0.0039	0.9990	0.0000	0.0000	0.0000	0.6866	-0.2527	178.8245	37.7000	9	0	0 
02185.119	-0.0161	-0.0039	0.9990	0.0000	0.0000	0.0000	0.6866	-0.2527	178.8190	37.7100	8	0	0 
02185.119	-0.0161	-0.0039	0.9990	0.0000	0.0000	0.0000	0.6812	-0.2582	178.8135	37.7100	9	0	0 
02185.178	-0.0161	-0.0039	0.9990	0.0000	0.0000	0.0000	0.6812	-0.2582	178.8135	37.7900	9	0	0 
02185.178	-0.0161	-0.0039	0.9990	0.0000	0.0000	0.0000	0.6812	-0.2637	178.8080	37.7900	10	0	0 
02185.178	-0.0161	-0.0039	0.9990	0.0000	0.0000	0.0000	0.6757	-0.2747	178.7970	37.7400	11	0	0 
02185.281	-0.0161	-0.0039	0.9990	0.0000	0.0000	0.0000	0.6757	-0.2802	178.7970	37.7300	11	0	0 
02185.281	-0.0161	-0.0039	0.9990	0.0000	0.0000	0.0000	0.6757	-0.2802	178.7915	37.7300	10	0	0 
02185.329	-0.0161	-0.0039	0.9990	0.0000	0.0000	0.0000	0.6702	-0.2856	178.7860	37.7300	10	0	0 
02185.329	-0.0161	-0.0039	0.9990	0.0000	0.0000	0.0000	0.6702	-0.2856	178.7860	37.7600	9	0	0 
02185.329	-0.0161	-0.0037	0.9988	0.0000	0.0000	0.0000	0.6702	-0.2911	178.7805	37.7600	9	0	0 
02185.340	-0.0161	-0.0037	0.9988	0.0000	0.0000	0.0000	0.6702	-0.2911	178.7805	37.7400	10	0	0 
02185.340	-0.0161	-0.0037	0.9988	0.0000	0.0000	0.0000	0.6702	-0.2966	178.7750	37.7400	11	0	0 
02185.340	-0.0161	-0.0037	0.9988	0.0000	0.0000	0.0000	0.6647	-0.2966	178.7750	37.7400	11	0	0 
02185.365	-0.0161	-0.0037	0.9988	0.0000	0.0000	0.0000	0.6647	-0.3021	178.7695	37.7400	11	0	0 
02185.365	-0.0161	-0.0037	0.9988	0.0000	0.0000	0.0000	0.6647	-0.3021	178.7695	37.8000	10	0	0 
02185.365	-0.0161	-0.0037	0.9988	0.0000	0.0000	0.0000	0.6647	-0.3076	178.7640	37.8000	9	0	0 
02185.387	-0.0161	-0.0037	0.9988	0.0000	0.0000	0.0000	0.6647	-0.3131	178.7585	37.6700	9	0	0 
02185.388	-0.0161	-0.0037	0.9988	0.0000	0.0000	0.0000	0.6592	-0.3131	178.7585	37.6700	9	0	0 
02185.388	-0.0161	-0.0037	0.9988	0.0000	0.0000	0.0000	0.6592	-0.3186	178.7531	37.7500	10	0	0 
02185.412	-0.0161	-0.0037	0.9988	0.0000	0.0000	0.0000	0.6592	-0.3186	178.7531	37.7500	10	0	0 
02185.412	-0.0161	-0.0037	0.9988	0.0000	0.0000	0.0000	0.6592	-0.3241	178.7476	37.7700	11	0	0 
02185.412	-0.0161	-0.0037	0.9988	0.0000	0.0000	0.0000	0.6592	-0.3241	178.7476	37.7700	10	0	0 
02185.441	-0.0161	-0.0037	0.9988	0.0000	0.0000	0.0000	0.6537	-0.3296	178.7421	37.7700	10	0	0 
02185.441	-0.0161	-0.0037	0.9988	0.0000	0.0000	0.0000	0.6537	-0.3296	178.7421	37.7100	10	0	0 
02185.441	-0.0161	-0.0037	0.9988	0.0000	0.0000	0.0000	0.6537	-0.3351	178.7366	37.7100	10	0	0 
02185.459	-0.0161	-0.0034	0.9988	0.0000	0.0000	0.0000	0.6537	-0.3351	178.7366	37.6400	9	0	0 
02185.459	-0.0161	-0.0034	0.9988	0.0000	0.0000	0.0000	0.6537	-0.3406	178.7311	37.6400	9	0	0 
02185.459	-0.0161	-0.0034	0.9988	0.0000	0.0000	0.0000	0.6482	-0.3406	178.7311	37.7500	9	0	0 
02185.508	-0.0161	-0.0034	0.9988	0.0000	0.0000	0.0000	0.6482	-0.3461	178.7256	37.7500	9	0	0 
02185.508	-0.0161	-0.0034	0.9988	0.0000	0.0000	0.0000	0.6482	-0.3461	178.7256	37.7700	9	0	0 
02185.534	-0.0161	-0.0034	0.9988	0.0000	0.0000	0.0000	0.6482	-0.3516	178.7201	37.7700	9	0	0 
02185.534	-0.0161	-0.0034	0.9988	0.0000	0.0000	0.0000	0.6482	-0.3516	178.7201	37.7300	9	0	0 
02185.534	-0.0161	-0.0034	0.9988	0.0000	0.0000	0.0000	0.6427	-0.3571	178.7146	37.7300	9	0	0 
02185.607	-0.0159	-0.0032	0.9988	0.0000	0.0000	0.0000	0.6427	-0.3571	178.7091	37.7600	9	0	0 
02185.607	-0.0159	-0.0032	0.9988	0.0000	0.0000	0.0000	0.6427	-0.3625	178.7091	37.7600	9	0	0 
02185.607	-0.0159	-0.0032	0.9988	0.0000	0.0000	0.0000	0.6427	-0.3625	178.7036	37.7700	9	0	0 
02185.626	-0.0159	-0.0032	0.9988	0.0000	0.0000	0.0000	0.6427	-0.3680	178.7036	37.7700	8	0	0 
02185.626	-0.0159	-0.0032	0.9988	0.0000	0.0000	0.0000	0.6427	-0.3680	178.6981	37.7300	7	0	0 
02185.626	-0.0159	-0.0032	0.9988	0.0000	0.0000	0.0000	0.6372	-0.3735	178.6981	37.7300	6	0	0 
02185.658	-0.0159	-0.0032	0.9988	0.0000	0.0000	0.0000	0.6372	-0.3735	178.6926	37.7300	6	0	0 
02185.658	-0.0159	-0.0032	0.9988	0.0000	0.0000	0.0000	0.6372	-0.3790	178.6926	37.7400	6	0	0 
02185.658	-0.0156	-0.0032	0.9990	0.0000	0.0000	0.0000	0.6372	-0.3790	178.6871	37.7400	6	0	0 
02185.686	-0.0156	-0.0032	0.9990	0.0000	0.0000	0.0000	0.6372	-0.3845	178.6871	37.7100	7	0	0 
02185.686	-0.0156	-0.0032	0.9990	0.0000	0.0000	0.0000	0.6372	-0.3845	178.6816	37.7100	7	0	0 
02185.686	-0.0156	-0.0032	0.9990	0.0000	0.0000	0.0000	0.6317	-0.3900	178.6816	37.7000	7	0	0 
02185.727	-0.0156	-0.0032	0.9990	0.0000	0.0000	0.0000	0.6317	-0.3900	178.6761	37.7000	7	0	0 
02185.727	-0.0156	-0.0032	0.9990	0.0000	0.0000	0.0000	0.6317	-0.3955	178.6761	37.7400	7	0	0 
02185.727	-0.0156	-0.0032	0.9990	0.0000	0.0000	0.0000	0.6317	-0.3955	178.6707	37.7400	7	0	0 
02185.731	-0.0156	-0.0032	0.9990	0.0000	0.0000	0.0000	0.6317	-0.4010	178.6707	37.7800	7	0	0 
02185.731	-0.0154	-0.0034	0.9988	0.0000	0.0000	0.0000	0.6317	-0.4010	178.6652	37.7800	7	0	0 
02185.731	-0.0154	-0.0034	0.9988	0.0000	0.0000	0.0000	0.6262	-0.4065	178.6652	37.7800	7	0	0 
02185.773	-0.0154	-0.0034	0.9988	0.0000	0.0000	0.0000	0.6262	-0.4065	178.6597	37.7800	7	0	0 
02185.773	-0.0154	-0.0034	0.9988	0.0000	0.0000	0.0000	0.6262	-0.4120	178.6597	37.7600	7	0	0 
02185.773	-0.0154	-0.0034	0.9988	0.0000	0.0000	0.0000	0.6262	-0.4120	178.6542	37.7600	7	0	0 
02185.794	-0.0154	-0.0034	0.9988	0.0000	0.0000	0.0000	0.6262	-0.4175	178.6542	37.7700	7	0	0 
02185.794	-0.0154	-0.0034	0.9988	0.0000	0.0000	0.0000	0.6207	-0.4175	178.6542	37.7700	7	0	0 
02185.816	-0.0154	-0.0034	0.9988	0.0000	0.0000	0.0000	0.6207	-0.4230	178.6487	37.7700	8	0	0 
02185.816	-0.0154	-0.0034	0.9988	0.0000	0.0000	0.0000	0.6207	-0.4230	178.6487	37.7800	7	0	0 
02185.816	-0.0154	-0.0034	0.9988	0.0000	0.0000	0.0000	0.6207	-0.4285	178.6432	37.7800	6	0	0 
02185.830	-0.0154	-0.0034	0.9988	0.0000	0.0000	0.0000	0.6207	-0.4285	178.6432	37.7100	7	0	0 
02185.830	-0.0154	-0.0034	0.9988	0.0000	0.0000	0.0000	0.6207	-0.4285	178.6377	37.7100	7	0	0 
02185.830	-0.0154	-0.0034	0.9988	0.0000	0.0000	0.0000	0.6152	-0.4340	178.6377	37.8300	8	0	0 
02185.859	-0.0154	-0.0034	0.9988	0.0000	0.0000	0.0000	0.6152	-0.4340	178.6322	37.8300	10	0	0 
02185.859	-0.0154	-0.0034	0.9988	0.0000	0.0000	0.0000	0.6152	-0.4395	178.6322	37.7400	10	0	0 
02185.859	-0.0154	-0.0039	0.9988	0.0000	0.0000	0.0000	0.6152	-0.4395	178.6267	37.7400	10	0	0 
02185.881	-0.0154	-0.0039	0.9988	0.0000	0.0000	0.0000	0.6152	-0.4449	178.6267	37.7900	11	0	0 
02185.881	-0.0154	-0.0039	0.9988	0.0000	0.0000	0.0000	0.6152	-0.4449	178.6212	37.7900	12	0	0 
02185.881	-0.0154	-0.0039	0.9988	0.0000	0.0000	0.0000	0.6097	-0.4504	178.6212	37.7300	12	0	0 
02185.905	-0.0154	-0.0039	0.9988	0.0000	0.0000	0.0000	0.6097	-0.4504	178.6157	37.7300	12	0	0 
02185.905	-0.0154	-0.0039	0.9988	0.0000	0.0000	0.0000	0.6097	-0.4504	178.6157	37.7400	8	0	0 
02185.905	-0.0166	-0.0042	0.9985	0.0000	0.0000	0.0000	0.6097	-0.4559	178.6102	37.7200	12	0	0 
02185.907	-0.0154	-0.0039	0.9988	0.0000	0.0000	0.0000	0.6097	-0.4614	178.6102	37.7900	12	0	0 
02185.907	-0.0159	-0.0039	0.9988	0.0000	0.0000	0.0000	0.6097	-0.4614	178.6102	37.7900	7	0	0 
02185.907	-0.0166	-0.0042	0.9985	0.0000	0.0000	0.0000	0.5219	-0.6537	178.4015	37.7500	8	0	0 
02185.909	-0.0166	-0.0042	0.9985	0.0000	0.0000	0.0000	0.5219	-0.6592	178.4015	37.7500	8	0	0 
02185.909	-0.0166	-0.0044	0.9985	0.0000	0.0000	0.0000	0.5219	-0.6592	178.3960	37.7500	9	0	0 
02185.909	-0.0166	-0.0044	0.9985	0.0000	0.0000	0.0000	0.5219	-0.6592	178.3960	37.7000	10	0	0 
02185.942	-0.0166	-0.0044	0.9985	0.0000	0.0000	0.0000	0.5219	-0.6647	178.3960	37.7000	10	0	0 
02185.942	-0.0166	-0.0044	0.9985	0.0000	0.0000	0.0000	0.5219	-0.6647	178.3905	37.7000	10	0	0 
02185.942	-0.0166	-0.0044	0.9985	0.0000	0.0000	0.0000	0.5219	-0.6647	178.3905	37.7900	10	0	0 
02185.946	-0.0166	-0.0044	0.9985	0.0000	0.0000	0.0000	0.5164	-0.6647	178.3905	37.7900	11	0	0 
02185.946	-0.0166	-0.0044	0.9985	0.0000	0.0000	0.0000	0.5164	-0.6702	178.3850	37.7800	10	0	0 
02186.036	-0.0166	-0.0044	0.9985	0.0000	0.0000	0.0000	0.5164	-0.6702	178.3850	37.7800	9	0	0 
02186.036	-0.0166	-0.0044	0.9988	0.0000	0.0000	0.0000	0.5164	-0.6702	178.3850	37.7300	9	0	0 
02186.036	-0.0166	-0.0044	0.9988	0.0000	0.0000	0.0000	0.5164	-0.6757	178.3795	37.7300	9	0	0 
02186.040	-0.0166	-0.0044	0.9988	0.0000	0.0000	0.0000	0.5164	-0.6757	178.3795	37.7300	9	0	0 
02186.040	-0.0166	-0.0044	0.9988	0.0000	0.0000	0.0000	0.5164	-0.6757	178.3795	37.7300	9	0	0 
02186.040	-0.0166	-0.0044	0.9988	0.0000	0.0000	0.0000	0.5109	-0.6812	178.3740	37.8100	10	0	0 
02186.052	-0.0166	-0.0044	0.9988	0.0000	0.0000	0.0000	0.5109	-0.6812	178.3740	37.8100	10	0	0 
02186.052	-0.0166	-0.0044	0.9988	0.0000	0.0000	0.0000	0.5109	-0.6812	178.3740	37.7100	9	0	0 
02186.052	-0.0166	-0.0044	0.9988	0.0000	0.0000	0.0000	0.5109	-0.6866	178.3685	37.7100	9	0	0 
02186.059	-0.0166	-0.0044	0.9988	0.0000	0.0000	0.0000	0.5109	-0.6866	178.3685	37.7400	10	0	0 
02186.059	-0.0166	-0.0044	0.9988	0.0000	0.0000	0.0000	0.5109	-0.6866	178.3685	37.7400	11	0	0 
02186.059	-0.0166	-0.0044	0.9988	0.0000	0.0000	0.0000	0.5109	-0.6866	178.3630	37.8000	11	0	0 
02186.062	-0.0166	-0.0044	0.9988	0.0000	0.0000	0.0000	0.5054	-0.6921	178.3630	37.8000	12	0	0 
02186.062	-0.0166	-0.0044	0.9988	0.0000	0.0000	0.0000	0.5054	-0.6921	178.3630	37.8000	11	0	0 
02186.062	-0.0166	-0.0044	0.9988	0.0000	0.0000	0.0000	0.5054	-0.6921	178.3575	37.7400	11	0	0 
02186.066	-0.0166	-0.0044	0.9988	0.0000	0.0000	0.0000	0.5054	-0.6976	178.3575	37.7400	10	0	0 
02186.066	-0.0166	-0.0044	0.9988	0.0000	0.0000	0.0000	0.5054	-0.6976	178.3575	37.7300	9	0	0 
02186.066	-0.0164	-0.0042	0.9988	0.0000	0.0000	0.0000	0.5054	-0.6976	178.3521	37.7300	10	0	0 
02186.071	-0.0164	-0.0042	0.9988	0.0000	0.0000	0.0000	0.5054	-0.7031	178.3521	37.7400	10	0	0 
02186.071	-0.0164	-0.0042	0.9988	0.0000	0.0000	0.0000	0.5054	-0.7031	178.3521	37.7400	11	0	0 
02186.071	-0.0164	-0.0042	0.9988	0.0000	0.0000	0.0000	0.4999	-0.7031	178.3521	37.7500	11	0	0 
02186.089	-0.0164	-0.0042	0.9988	0.0000	0.0000	0.0000	0.4999	-0.7031	178.3466	37.7500	11	0	0 
02186.089	-0.0164	-0.0042	0.9988	0.0000	0.0000	0.0000	0.4999	-0.7086	178.3466	37.7400	12	0	0 
02186.089	-0.0164	-0.0042	0.9988	0.0000	0.0000	0.0000	0.4999	-0.7086	178.3466	37.7400	12	0	0 
02186.102	-0.0164	-0.0042	0.9988	0.0000	0.0000	0.0000	0.4999	-0.7086	178.3411	37.7400	13	0	0 
02186.103	-0.0164	-0.0042	0.9988	0.0000	0.0000	0.0000	0.4999	-0.7141	178.3411	37.7400	12	0	0 
02186.135	-0.0164	-0.0042	0.9988	0.0000	0.0000	0.0000	0.4999	-0.7141	178.3411	37.7700	11	0	0 
02186.135	-0.0164	-0.0042	0.9988	0.0000	0.0000	0.0000	0.4999	-0.7141	178.3356	37.7700	12	0	0 
02186.135	-0.0164	-0.0042	0.9988	0.0000	0.0000	0.0000	0.4944	-0.7196	178.3356	37.7400	12	0	0 
02186.166	-0.0164	-0.0042	0.9988	0.0000	0.0000	0.0000	0.4944	-0.7196	178.3356	37.7400	11	0	0 
02186.166	-0.0164	-0.0042	0.9988	0.0000	0.0000	0.0000	0.4944	-0.7196	178.3301	37.7400	11	0	0 
02186.166	-0.0164	-0.0042	0.9988	0.0000	0.0000	0.0000	0.4944	-0.7196	178.3301	37.7600	11	0	0 
02186.224	-0.0164	-0.0042	0.9988	0.0000	0.0000	0.0000	0.4944	-0.7251	178.3301	37.7600	11	0	0 
02186.224	-0.0161	-0.0042	0.9985	0.0000	0.0000	0.0000	0.4944	-0.7251	178.3301	37.7900	11	0	0 
02186.224	-0.0161	-0.0042	0.9985	0.0000	0.0000	0.0000	0.4944	-0.7251	178.3246	37.7900	11	0	0 
02186.241	-0.0161	-0.0042	0.9985	0.0000	0.0000	0.0000	0.4944	-0.7306	178.3246	37.7700	11	0	0 
02186.241	-0.0161	-0.0042	0.9985	0.0000	0.0000	0.0000	0.4889	-0.7306	178.3246	37.7700	11	0	0 
02186.241	-0.0161	-0.0042	0.9985	0.0000	0.0000	0.0000	0.4889	-0.7306	178.3191	37.7300	11	0	0 
02186.269	-0.0161	-0.0042	0.9985	0.0000	0.0000	0.0000	0.4889	-0.7306	178.3191	37.7300	10	0	0 
02186.269	-0.0161	-0.0042	0.9985	0.0000	0.0000	0.0000	0.4889	-0.7361	178.3191	37.7800	9	0	0 
02186.269	-0.0161	-0.0042	0.9985	0.0000	0.0000	0.0000	0.4889	-0.7361	178.3136	37.7800	9	0	0 
02186.312	-0.0161	-0.0042	0.9985	0.0000	0.0000	0.0000	0.4889	-0.7361	178.3136	37.8000	9	0	0 
02186.312	-0.0161	-0.0042	0.9985	0.0000	0.0000	0.0000	0.4889	-0.7416	178.3136	37.8000	10	0	0 
02186.312	-0.0161	-0.0042	0.9985	0.0000	0.0000	0.0000	0.4889	-0.7416	178.3136	37.7700	10	0	0 
02186.351	-0.0161	-0.0042	0.9985	0.0000	0.0000	0.0000	0.4834	-0.7416	178.3081	37.7700	11	0	0 
02186.351	-0.0161	-0.0042	0.9985	0.0000	0.0000	0.0000	0.4834	-0.7471	178.3081	37.7700	11	0	0 
02186.351	-0.0161	-0.0042	0.9985	0.0000	0.0000	0.0000	0.4834	-0.7471	178.3081	37.7400	11	0	0 
02186.378	-0.0161	-0.0042	0.9985	0.0000	0.0000	0.0000	0.4834	-0.7471	178.3026	37.7400	11	0	0 
02186.378	-0.0161	-0.0042	0.9985	0.0000	0.0000	0.0000	0.4834	-0.7471	178.3026	37.7700	11	0	0 
02186.378	-0.0159	-0.0042	0.9983	0.0000	0.0000	0.0000	0.4834	-0.7526	178.3026	37.7700	11	0	0 
02186.398	-0.0159	-0.0042	0.9983	0.0000	0.0000	0.0000	0.4834	-0.7526	178.2971	37.7500	12	0	0 
02186.398	-0.0159	-0.0042	0.9983	0.0000	0.0000	0.0000	0.4834	-0.7526	178.2971	37.7500	12	0	0 
02186.442	-0.0159	-0.0042	0.9983	0.0000	0.0000	0.0000	0.4834	-0.7581	178.2971	37.7400	11	0	0 
02186.442	-0.0159	-0.0042	0.9983	0.0000	0.0000	0.0000	0.4779	-0.7581	178.2971	37.7400	11	0	0 
02186.442	-0.0159	-0.0042	0.9983	0.0000	0.0000	0.0000	0.4779	-0.7581	178.2916	37.7700	11	0	0 
02186.465	-0.0159	-0.0042	0.9983	0.0000	0.0000	0.0000	0.4779	-0.7581	178.2916	37.7700	11	0	0 
02186.465	-0.0159	-0.0042	0.9983	0.0000	0.0000	0.0000	0.4779	-0.7635	178.2916	37.7500	10	0	0 
02186.465	-0.0159	-0.0042	0.9983	0.0000	0.0000	0.0000	0.4779	-0.7635	178.2861	37.7500	10	0	0 
02186.491	-0.0159	-0.0042	0.9983	0.0000	0.0000	0.0000	0.4779	-0.7635	178.2861	37.7300	10	0	0 
02186.491	-0.0159	-0.0042	0.9983	0.0000	0.0000	0.0000	0.4779	-0.7690	178.2861	37.7300	10	0	0 
02186.491	-0.0159	-0.0042	0.9983	0.0000	0.0000	0.0000	0.4779	-0.7690	178.2861	37.7500	9	0	0 
02186.507	-0.0159	-0.0042	0.9983	0.0000	0.0000	0.0000	0.4779	-0.7690	178.2806	37.7500	8	0	0 
02186.507	-0.0159	-0.0042	0.9983	0.0000	0.0000	0.0000	0.4724	-0.7690	178.2806	37.7500	7	0	0 
02186.507	-0.0159	-0.0042	0.9983	0.0000	0.0000	0.0000	0.4724	-0.7745	178.2806	37.7200	7	0	0 
02186.539	-0.0159	-0.0042	0.9983	0.0000	0.0000	0.0000	0.4724	-0.7745	178.2806	37.7200	8	0	0 
02186.539	-0.0159	-0.0044	0.9980	0.0000	0.0000	0.0000	0.4724	-0.7745	178.2751	37.7000	9	0	0 
02186.539	-0.0159	-0.0044	0.9980	0.0000	0.0000	0.0000	0.4724	-0.7745	178.2751	37.7000	9	0	0 
02186.541	-0.0159	-0.0044	0.9980	0.0000	0.0000	0.0000	0.4724	-0.7800	178.2751	37.6500	9	0	0 
02186.541	-0.0159	-0.0044	0.9980	0.0000	0.0000	0.0000	0.4724	-0.7800	178.2697	37.6500	8	0	0 
02186.541	-0.0159	-0.0044	0.9980	0.0000	0.0000	0.0000	0.4724	-0.7800	178.2697	37.7200	8	0	0 
02186.555	-0.0159	-0.0044	0.9980	0.0000	0.0000	0.0000	0.4669	-0.7855	178.2697	37.7200	8	0	0 
02186.555	-0.0159	-0.0044	0.9980	0.0000	0.0000	0.0000	0.4669	-0.7855	178.2697	37.7100	8	0	0 
02186.555	-0.0159	-0.0044	0.9980	0.0000	0.0000	0.0000	0.4669	-0.7855	178.2642	37.7100	9	0	0 
02186.573	-0.0159	-0.0042	0.9980	0.0000	0.0000	0.0000	0.4669	-0.7855	178.2642	37.7900	10	0	0 
02186.573	-0.0159	-0.0042	0.9980	0.0000	0.0000	0.0000	0.4669	-0.7910	178.2642	37.7900	10	0	0 
02186.573	-0.0159	-0.0042	0.9980	0.0000	0.0000	0.0000	0.4669	-0.7910	178.2642	37.7400	10	0	0 
02186.586	-0.0159	-0.0042	0.9980	0.0000	0.0000	0.0000	0.4669	-0.7910	178.2587	37.7400	10	0	0 
02186.586	-0.0159	-0.0042	0.9980	0.0000	0.0000	0.0000	0.4230	-0.9009	178.1378	37.7400	10	0	0 
02186.586	-0.0164	-0.0037	0.9985	0.0000	0.0000	0.0000	0.4230	-0.9064	178.1378	37.8100	10	0	0 
02186.600	-0.0164	-0.0037	0.9985	0.0000	0.0000	0.0000	0.4230	-0.9064	178.1378	37.8100	10	0	0 
02186.600	-0.0164	-0.0037	0.9985	0.0000	0.0000	0.0000	0.4230	-0.9064	178.1378	37.7500	9	0	0 
02186.622	-0.0164	-0.0037	0.9985	0.0000	0.0000	0.0000	0.4230	-0.9064	178.1378	37.7500	10	0	0 
02186.622	-0.0164	-0.0037	0.9985	0.0000	0.0000	0.0000	0.4230	-0.9064	178.1323	37.7400	10	0	0 
02186.622	-0.0164	-0.0037	0.9985	0.0000	0.0000	0.0000	0.4230	-0.9064	178.1323	37.7400	10	0	0 
02186.637	-0.0161	-0.0037	0.9985	0.0000	0.0000	0.0000	0.4230	-0.9119	178.1323	37.7700	10	0	0 
02186.637	-0.0161	-0.0037	0.9985	0.0000	0.0000	0.0000	0.4230	-0.9119	178.1323	37.7700	9	0	0 
02186.637	-0.0161	-0.0037	0.9985	0.0000	0.0000	0.0000	0.4230	-0.9119	178.1323	37.7700	10	0	0 
02186.664	-0.0161	-0.0037	0.9985	0.0000	0.0000	0.0000	0.4230	-0.9119	178.1268	37.7100	10	0	0 
02186.664	-0.0161	-0.0037	0.9985	0.0000	0.0000	0.0000	0.4230	-0.9119	178.1268	37.7100	10	0	0 
02186.664	-0.0161	-0.0037	0.9985	0.0000	0.0000	0.0000	0.4230	-0.9174	178.1268	37.7400	10	0	0 
02186.683	-0.0161	-0.0037	0.9985	0.0000	0.0000	0.0000	0.4175	-0.9174	178.1268	37.7400	9	0	0 
02186.683	-0.0161	-0.0037	0.9985	0.0000	0.0000	0.0000	0.4175	-0.9174	178.1268	37.7500	8	0	0 
02186.683	-0.0161	-0.0037	0.9985	0.0000	0.0000	0.0000	0.4175	-0.9174	178.1268	37.7500	9	0	0 
02186.716	-0.0161	-0.0037	0.9985	0.0000	0.0000	0.0000	0.4175	-0.9174	178.1213	37.7900	10	0	0 
02186.716	-0.0161	-0.0037	0.9985	0.0000	0.0000	0.0000	0.4175	-0.9229	178.1213	37.7900	9	0	0 
02186.716	-0.0161	-0.0037	0.9985	0.0000	0.0000	0.0000	0.4175	-0.9229	178.1213	37.8000	8	0	0 
02186.730	-0.0161	-0.0037	0.9985	0.0000	0.0000	0.0000	0.4175	-0.9229	178.1213	37.8000	8	0	0 
02186.730	-0.0161	-0.0037	0.9985	0.0000	0.0000	0.0000	0.4175	-0.9229	178.1213	37.7000	8	0	0 
02186.730	-0.0161	-0.0037	0.9985	0.0000	0.0000	0.0000	0.4175	-0.9229	178.1158	37.7000	10	0	0 
02186.744	-0.0161	-0.0037	0.9985	0.0000	0.0000	0.0000	0.4175	-0.9283	178.1158	37.7700	11	0	0 
02186.744	-0.0161	-0.0039	0.9985	0.0000	0.0000	0.0000	0.4175	-0.9283	178.1158	37.7700	12	0	0 
02186.744	-0.0161	-0.0039	0.9985	0.0000	0.0000	0.0000	0.4175	-0.9283	178.1158	37.7700	12	0	0 
02186.749	-0.0161	-0.0039	0.9985	0.0000	0.0000	0.0000	0.4175	-0.9283	178.1158	37.7900	12	0	0 
02186.749	-0.0161	-0.0039	0.9985	0.0000	0.0000	0.0000	0.4175	-0.9283	178.1104	37.7900	12	0	0 
02186.753	-0.0161	-0.0039	0.9985	0.0000	0.0000	0.0000	0.4175	-0.9283	178.1104	37.8000	12	0	0 
02186.753	-0.0161	-0.0039	0.9985	0.0000	0.0000	0.0000	0.4120	-0.9338	178.1104	37.8000	12	0	0 
02186.753	-0.0161	-0.0039	0.9985	0.0000	0.0000	0.0000	0.4120	-0.9338	178.1104	37.7500	12	0	0 
02186.759	-0.0161	-0.0039	0.9985	0.0000	0.0000	0.0000	0.4120	-0.9338	178.1104	37.7500	12	0	0 
02186.759	-0.0161	-0.0044	0.9985	0.0000	0.0000	0.0000	0.4120	-0.9338	178.1104	37.6900	12	0	0 
02186.759	-0.0161	-0.0044	0.9985	0.0000	0.0000	0.0000	0.4120	-0.9338	178.1049	37.6900	12	0	0 
02186.768	-0.0161	-0.0044	0.9985	0.0000	0.0000	0.0000	0.4120	-0.9393	178.1049	37.8200	12	0	0 
02186.768	-0.0161	-0.0044	0.9985	0.0000	0.0000	0.0000	0.4120	-0.9393	178.1049	37.8200	12	0	0 
02186.768	-0.0161	-0.0044	0.9985	0.0000	0.0000	0.0000	0.4120	-0.9393	178.1049	37.7100	13	0	0 
02186.777	-0.0161	-0.0044	0.9985	0.0000	0.0000	0.0000	0.4120	-0.9393	178.1049	37.7100	14	0	0 
02186.777	-0.0161	-0.0044	0.9985	0.0000	0.0000	0.0000	0.4120	-0.9393	178.0994	37.7900	14	0	0 
02186.777	-0.0161	-0.0044	0.9985	0.0000	0.0000	0.0000	0.4120	-0.9393	178.0994	37.7900	14	0	0 
02186.788	-0.0161	-0.0046	0.9988	0.0000	0.0000	0.0000	0.4120	-0.9448	178.0994	37.8000	14	0	0 
02186.788	-0.0161	-0.0046	0.9988	0.0000	0.0000	0.0000	0.4065	-0.9448	178.0994	37.8000	14	0	0 
02186.788	-0.0161	-0.0046	0.9988	0.0000	0.0000	0.0000	0.4065	-0.9448	178.0994	37.8000	13	0	0 
02186.795	-0.0161	-0.0046	0.9988	0.0000	0.0000	0.0000	0.4065	-0.9448	178.0994	37.7900	13	0	0 
02186.795	-0.0161	-0.0046	0.9988	0.0000	0.0000	0.0000	0.4065	-0.9448	178.0939	37.7900	12	0	0 
02186.795	-0.0161	-0.0046	0.9988	0.0000	0.0000	0.0000	0.4065	-0.9503	178.0939	37.8000	11	0	0 
02186.799	-0.0161	-0.0046	0.9988	0.0000	0.0000	0.0000	0.4065	-0.9503	178.0939	37.8000	11	0	0 
02186.799	-0.0161	-0.0046	0.9988	0.0000	0.0000	0.0000	0.4065	-0.9503	178.0939	37.7800	10	0	0 
02186.799	-0.0164	-0.0046	0.9988	0.0000	0.0000	0.0000	0.4065	-0.9503	178.0939	37.7800	10	0	0 
02186.809	-0.0164	-0.0046	0.9988	0.0000	0.0000	0.0000	0.4065	-0.9503	178.0884	37.7000	11	0	0 
02186.809	-0.0164	-0.0046	0.9988	0.0000	0.0000	0.0000	0.4065	-0.9503	178.0884	37.7000	11	0	0 
02186.809	-0.0164	-0.0046	0.9988	0.0000	0.0000	0.0000	0.4065	-0.9558	178.0884	37.7500	11	0	0 
02186.819	-0.0164	-0.0046	0.9988	0.0000	0.0000	0.0000	0.4010	-0.9558	178.0884	37.7500	11	0	0 
02186.819	-0.0164	-0.0046	0.9988	0.0000	0.0000	0.0000	0.4010	-0.9558	178.0884	37.7000	11	0	0 
02186.857	-0.0164	-0.0046	0.9988	0.0000	0.0000	0.0000	0.4010	-0.9558	178.0884	37.7000	11	0	0 
02186.857	-0.0164	-0.0046	0.9988	0.0000	0.0000	0.0000	0.4010	-0.9558	178.0829	37.7600	12	0	0 
02186.857	-0.0164	-0.0044	0.9988	0.0000	0.0000	0.0000	0.4010	-0.9558	178.0829	37.7600	12	0	0 
02186.862	-0.0164	-0.0044	0.9988	0.0000	0.0000	0.0000	0.4010	-0.9613	178.0829	37.7300	12	0	0 
02186.862	-0.0164	-0.0044	0.9988	0.0000	0.0000	0.0000	0.4010	-0.9613	178.0829	37.7300	12	0	0 
02186.862	-0.0164	-0.0044	0.9988	0.0000	0.0000	0.0000	0.4010	-0.9613	178.0829	37.7300	12	0	0 
02186.903	-0.0164	-0.0044	0.9988	0.0000	0.0000	0.0000	0.4010	-0.9613	178.0829	37.7500	12	0	0 
02186.903	-0.0164	-0.0044	0.9988	0.0000	0.0000	0.0000	0.4010	-0.9613	178.0774	37.7500	13	0	0 
02186.903	-0.0164	-0.0044	0.9988	0.0000	0.0000	0.0000	0.4010	-0.9613	178.0774	37.7800	13	0	0 
02186.907	-0.0164	-0.0044	0.9988	0.0000	0.0000	0.0000	0.4010	-0.9613	178.0774	37.7800	12	0	0 
02186.907	-0.0164	-0.0042	0.9988	0.0000	0.0000	0.0000	0.4010	-0.9668	178.0774	37.7800	11	0	0 
02186.907	-0.0164	-0.0042	0.9988	0.0000	0.0000	0.0000	0.3955	-0.9668	178.0774	37.7800	11	0	0 
02186.911	-0.0164	-0.0042	0.9988	0.0000	0.0000	0.0000	0.3955	-0.9668	178.0774	37.8000	12	0	0 
02186.911	-0.0164	-0.0042	0.9988	0.0000	0.0000	0.0000	0.3955	-0.9668	178.0719	37.8000	11	0	0 
02186.911	-0.0164	-0.0042	0.9988	0.0000	0.0000	0.0000	0.3955	-0.9668	178.0719	37.8000	11	0	0 
02186.919	-0.0164	-0.0042	0.9988	0.0000	0.0000	0.0000	0.3955	-0.9668	178.0719	37.8000	10	0	0 
02186.919	-0.0164	-0.0042	0.9988	0.0000	0.0000	0.0000	0.3955	-0.9723	178.0719	37.8100	9	0	0 
02186.919	-0.0164	-0.0042	0.9988	0.0000	0.0000	0.0000	0.3955	-0.9723	178.0719	37.8100	9	0	0 
02186.948	-0.0164	-0.0039	0.9988	0.0000	0.0000	0.0000	0.3955	-0.9723	178.0719	37.8200	9	0	0 
