Time	ax	ay	az	wx	wy	wz	AngleX	AngleY	AngleZ	T	hx	hy	hz 
02254.910	0.0547	-0.0151	0.9966	0.0000	0.0000	0.0000	-0.3625	-5.3339	177.7368	37.9100	39	0	0 
02254.920	0.0547	-0.0151	0.9966	0.0000	0.0000	0.0000	-0.3625	-5.3339	177.7368	37.9100	38	0	0 
02254.924	0.0547	-0.0151	0.9968	0.0000	0.0000	0.0000	-0.3625	-5.3339	177.7368	37.9100	38	0	0 
02254.924	0.0547	-0.0151	0.9968	0.0000	0.0000	0.0000	-0.3625	-5.3339	177.7368	37.8300	39	0	0 
02254.932	0.0547	-0.0151	0.9968	0.0000	0.0000	0.0000	-0.3625	-5.3339	177.7368	37.8300	39	0	0 
02254.940	0.0547	-0.0151	0.9968	0.0000	0.0000	0.0000	-0.3625	-5.3339	177.7368	37.9000	40	0	0 
02254.940	0.0547	-0.0151	0.9968	0.0000	0.0000	0.0000	-0.3625	-5.3339	177.7368	37.9000	40	0	0 
02254.945	0.0547	-0.0151	0.9968	0.0000	0.0000	0.0000	-0.3625	-5.3339	177.7368	37.8500	40	0	0 
02254.955	0.0547	-0.0151	0.9968	0.0000	0.0000	0.0000	-0.3625	-5.3339	177.7368	37.8500	40	0	0 
02254.955	0.0547	-0.0151	0.9968	0.0000	0.0000	0.0000	-0.3625	-5.3339	177.7368	37.9400	40	0	0 
02254.959	0.0547	-0.0156	0.9968	0.0000	0.0000	0.0000	-0.3625	-5.3339	177.7368	37.9400	40	0	0 
02254.969	0.0547	-0.0156	0.9968	0.0000	0.0000	0.0000	-0.3625	-5.3339	177.7368	37.8600	41	0	0 
02254.978	0.0547	-0.0156	0.9968	0.0000	0.0000	0.0000	-0.3625	-5.3339	177.7368	37.8600	42	0	0 
02254.978	0.0547	-0.0156	0.9968	0.0000	0.0000	0.0000	-0.3625	-5.3339	177.7368	37.8400	42	0	0 
02254.984	0.0547	-0.0156	0.9968	0.0000	0.0000	0.0000	-0.3625	-5.3339	177.7368	37.8400	42	0	0 
02254.993	0.0547	-0.0156	0.9968	0.0000	0.0000	0.0000	-0.3625	-5.3339	177.7368	37.8400	41	0	0 
02254.993	0.0547	-0.0156	0.9968	0.0000	0.0000	0.0000	-0.3625	-5.3339	177.7368	37.8400	40	0	0 
02254.998	0.0547	-0.0156	0.9968	0.0000	0.0000	0.0000	-0.3625	-5.3339	177.7368	37.8400	39	0	0 
02255.024	0.0549	-0.0154	0.9968	0.0000	0.0000	0.0000	-0.3625	-5.3339	177.7368	37.8400	40	0	0 
02255.024	0.0549	-0.0154	0.9968	0.0000	0.0000	0.0000	-0.3625	-5.3339	177.7368	37.8400	40	0	0 
02255.027	0.0549	-0.0154	0.9968	0.0000	0.0000	0.0000	-0.3625	-5.3339	177.7368	37.8500	40	0	0 
02255.027	0.0549	-0.0154	0.9968	0.0000	0.0000	0.0000	-0.3625	-5.3339	177.7368	37.8500	41	0	0 
02255.027	0.0549	-0.0154	0.9968	0.0000	0.0000	0.0000	-0.3625	-5.3339	177.7368	37.8200	41	0	0 
02255.027	0.0549	-0.0154	0.9968	0.0000	0.0000	0.0000	-0.3625	-5.3339	177.7368	37.8200	41	0	0 
02255.043	0.0549	-0.0154	0.9968	0.0000	0.0000	0.0000	-0.3625	-5.3339	177.7368	37.8900	40	0	0 
02255.043	0.0549	-0.0154	0.9968	0.0000	0.0000	0.0000	-0.3625	-5.3339	177.7368	37.8900	41	0	0 
02255.045	0.0549	-0.0154	0.9966	0.0000	0.0000	0.0000	-0.3625	-5.3339	177.7368	37.8500	41	0	0 
02255.048	0.0549	-0.0154	0.9966	0.0000	0.0000	0.0000	-0.3625	-5.3339	177.7368	37.8500	42	0	0 
02255.058	0.0549	-0.0154	0.9966	0.0000	0.0000	0.0000	-0.3625	-5.3339	177.7368	37.8500	42	0	0 
02255.058	0.0549	-0.0154	0.9966	0.0000	0.0000	0.0000	-0.3625	-5.3339	177.7368	37.8500	41	0	0 
02255.071	0.0549	-0.0154	0.9966	0.0000	0.0000	0.0000	-0.3625	-5.3339	177.7368	37.7900	40	0	0 
02255.079	0.0549	-0.0154	0.9966	0.0000	0.0000	0.0000	-0.3625	-5.3339	177.7368	37.7900	41	0	0 
02255.079	0.0549	-0.0154	0.9966	0.0000	0.0000	0.0000	-0.3625	-5.3339	177.7368	37.8800	41	0	0 
02255.087	0.0549	-0.0154	0.9966	0.0000	0.0000	0.0000	-0.3625	-5.3339	177.7368	37.8800	41	0	0 
02255.091	0.0544	-0.0156	0.9968	0.0000	0.0000	0.0000	-0.3625	-5.3339	177.7368	37.8800	40	0	0 
02255.091	0.0544	-0.0156	0.9968	0.0000	0.0000	0.0000	-0.3625	-5.3339	177.7368	37.7700	40	0	0 
02255.093	0.0544	-0.0156	0.9968	0.0000	0.0000	0.0000	-0.3625	-5.3339	177.7368	37.7700	41	0	0 
02255.102	0.0544	-0.0156	0.9968	0.0000	0.0000	0.0000	-0.3625	-5.3339	177.7368	37.8800	40	0	0 
02255.102	0.0544	-0.0156	0.9968	0.0000	0.0000	0.0000	-0.3625	-5.3339	177.7368	37.8800	39	0	0 
02255.107	0.0544	-0.0156	0.9968	0.0000	0.0000	0.0000	-0.3625	-5.3339	177.7368	37.8500	39	0	0 
02255.116	0.0544	-0.0156	0.9968	0.0000	0.0000	0.0000	-0.3625	-5.3339	177.7368	37.8500	39	0	0 
02255.116	0.0544	-0.0156	0.9968	0.0000	0.0000	0.0000	-0.3625	-5.3339	177.7368	37.8600	39	0	0 
02255.122	0.0544	-0.0159	0.9968	0.0000	0.0000	0.0000	-0.3625	-5.3339	177.7368	37.8600	39	0	0 
02255.129	0.0544	-0.0159	0.9968	0.0000	0.0000	0.0000	-0.3625	-5.3339	177.7368	37.8600	38	0	0 
02255.135	0.0544	-0.0159	0.9968	0.0000	0.0000	0.0000	-0.3625	-5.3339	177.7368	37.8600	38	0	0 
02255.135	0.0544	-0.0159	0.9968	0.0000	0.0000	0.0000	-0.3625	-5.3339	177.7368	37.8200	39	0	0 
02255.144	0.0544	-0.0159	0.9968	0.0000	0.0000	0.0000	-0.3625	-5.3339	177.7368	37.8200	40	0	0 
02255.151	0.0544	-0.0159	0.9968	0.0000	0.0000	0.0000	-0.3625	-5.3339	177.7368	37.8500	41	0	0 
02255.151	0.0544	-0.0159	0.9968	0.0000	0.0000	0.0000	-0.3625	-5.3339	177.7368	37.8500	41	0	0 
02255.159	0.0544	-0.0159	0.9968	0.0000	0.0000	0.0000	-0.3625	-5.3339	177.7368	37.8700	41	0	0 
02255.163	0.0544	-0.0151	0.9971	0.0000	0.0000	0.0000	-0.3625	-5.3339	177.7368	37.8700	41	0	0 
02255.163	0.0544	-0.0151	0.9971	0.0000	0.0000	0.0000	-0.3625	-5.3339	177.7368	37.8700	41	0	0 
02255.172	0.0544	-0.0151	0.9971	0.0000	0.0000	0.0000	-0.3625	-5.3339	177.7368	37.8600	42	0	0 
02255.202	0.0544	-0.0151	0.9971	0.0000	0.0000	0.0000	-0.3625	-5.3339	177.7368	37.8600	42	0	0 
02255.202	0.0544	-0.0151	0.9971	0.0000	0.0000	0.0000	-0.3625	-5.3339	177.7368	37.8800	42	0	0 
02255.204	0.0544	-0.0151	0.9971	0.0000	0.0000	0.0000	-0.3625	-5.3339	177.7368	37.8800	42	0	0 
02255.204	0.0544	-0.0151	0.9971	0.0000	0.0000	0.0000	-0.3625	-5.3339	177.7368	37.7900	41	0	0 
02255.204	0.0544	-0.0151	0.9971	0.0000	0.0000	0.0000	-0.3625	-5.3339	177.7368	37.7900	41	0	0 
02255.204	0.0547	-0.0159	0.9971	0.0000	0.0000	0.0000	-0.3625	-5.3339	177.7368	37.8200	41	0	0 
02255.206	0.0547	-0.0159	0.9971	0.0000	0.0000	0.0000	-0.3625	-5.3339	177.7368	37.8200	41	0	0 
02255.206	0.0547	-0.0159	0.9971	0.0000	0.0000	0.0000	-0.3625	-5.3339	177.7368	37.8200	41	0	0 
02255.221	0.0547	-0.0159	0.9971	0.0000	0.0000	0.0000	-0.3625	-5.3339	177.7368	37.8200	41	0	0 
02255.223	0.0547	-0.0159	0.9971	0.0000	0.0000	0.0000	-0.3625	-5.3339	177.7368	37.9000	41	0	0 
02255.231	0.0547	-0.0159	0.9971	0.0000	0.0000	0.0000	-0.3625	-5.3339	177.7368	37.9000	42	0	0 
02255.231	0.0547	-0.0159	0.9971	0.0000	0.0000	0.0000	-0.3625	-5.3339	177.7368	37.8600	42	0	0 
02255.240	0.0547	-0.0159	0.9971	0.0000	0.0000	0.0000	-0.3625	-5.3339	177.7368	37.8600	41	0	0 
02255.246	0.0549	-0.0154	0.9971	0.0000	0.0000	0.0000	-0.3625	-5.3339	177.7368	37.9200	40	0	0 
02255.246	0.0549	-0.0154	0.9971	0.0000	0.0000	0.0000	-0.3625	-5.3339	177.7368	37.9200	39	0	0 
02255.252	0.0549	-0.0154	0.9971	0.0000	0.0000	0.0000	-0.3625	-5.3339	177.7368	37.9200	39	0	0 
02255.258	0.0549	-0.0154	0.9971	0.0000	0.0000	0.0000	-0.3625	-5.3339	177.7368	37.9000	39	0	0 
02255.258	0.0549	-0.0154	0.9971	0.0000	0.0000	0.0000	-0.3625	-5.3339	177.7368	37.9000	39	0	0 
02255.271	0.0549	-0.0154	0.9971	0.0000	0.0000	0.0000	-0.3625	-5.3339	177.7368	37.8700	39	0	0 
02255.277	0.0549	-0.0154	0.9971	0.0000	0.0000	0.0000	-0.3625	-5.3339	177.7368	37.8700	40	0	0 
02255.277	0.0549	-0.0154	0.9971	0.0000	0.0000	0.0000	-0.3625	-5.3339	177.7368	37.8400	40	0	0 
02255.284	0.0549	-0.0149	0.9971	0.0000	0.0000	0.0000	-0.3625	-5.3339	177.7368	37.8400	40	0	0 
02255.293	0.0549	-0.0149	0.9971	0.0000	0.0000	0.0000	-0.3625	-5.3339	177.7368	37.8200	40	0	0 
02255.298	0.0549	-0.0149	0.9971	0.0000	0.0000	0.0000	-0.3625	-5.3339	177.7368	37.8200	40	0	0 
02255.298	0.0549	-0.0149	0.9971	0.0000	0.0000	0.0000	-0.3625	-5.3339	177.7368	37.8900	40	0	0 
02255.304	0.0549	-0.0149	0.9971	0.0000	0.0000	0.0000	-0.3625	-5.3339	177.7368	37.8900	38	0	0 
02255.329	0.0549	-0.0149	0.9971	0.0000	0.0000	0.0000	-0.3625	-5.3339	177.7368	37.8400	36	0	0 
02255.329	0.0549	-0.0149	0.9971	0.0000	0.0000	0.0000	-0.3625	-5.3339	177.7368	37.8400	37	0	0 
02255.339	0.0549	-0.0149	0.9971	0.0000	0.0000	0.0000	-0.3625	-5.3339	177.7368	37.8400	38	0	0 
02255.341	0.0552	-0.0156	0.9966	0.0000	0.0000	0.0000	-0.3625	-5.3339	177.7368	37.8400	39	0	0 
02255.341	0.0552	-0.0156	0.9966	0.0000	0.0000	0.0000	-0.3625	-5.3339	177.7368	37.8100	39	0	0 
02255.346	0.0552	-0.0156	0.9966	0.0000	0.0000	0.0000	-0.3625	-5.3339	177.7368	37.8100	40	0	0 
02255.348	0.0552	-0.0156	0.9966	0.0000	0.0000	0.0000	-0.3625	-5.3339	177.7368	37.8100	41	0	0 
02255.348	0.0552	-0.0156	0.9966	0.0000	0.0000	0.0000	-0.3625	-5.3339	177.7368	37.8800	41	0	0 
02255.350	0.0552	-0.0156	0.9966	0.0000	0.0000	0.0000	-0.3625	-5.3339	177.7368	37.8800	41	0	0 
02255.353	0.0552	-0.0156	0.9966	0.0000	0.0000	0.0000	-0.3625	-5.3339	177.7368	37.8500	41	0	0 
02255.353	0.0552	-0.0156	0.9966	0.0000	0.0000	0.0000	-0.3625	-5.3339	177.7368	37.8500	41	0	0 
02255.367	0.0547	-0.0149	0.9968	0.0000	0.0000	0.0000	-0.3625	-5.3339	177.7368	37.9100	41	0	0 
02255.372	0.0547	-0.0149	0.9968	0.0000	0.0000	0.0000	-0.3625	-5.3339	177.7368	37.9100	41	0	0 
02255.372	0.0547	-0.0149	0.9968	0.0000	0.0000	0.0000	-0.3625	-5.3339	177.7368	37.8800	41	0	0 
02255.376	0.0547	-0.0149	0.9968	0.0000	0.0000	0.0000	-0.3625	-5.3339	177.7368	37.8800	40	0	0 
02255.383	0.0547	-0.0149	0.9968	0.0000	0.0000	0.0000	-0.3625	-5.3339	177.7368	37.8800	40	0	0 
02255.398	0.0547	-0.0149	0.9968	0.0000	0.0000	0.0000	-0.3625	-5.3339	177.7368	37.8800	41	0	0 
02255.398	0.0547	-0.0149	0.9968	0.0000	0.0000	0.0000	-0.3625	-5.3339	177.7368	37.8500	40	0	0 
02255.400	0.0547	-0.0149	0.9968	0.0000	0.0000	0.0000	-0.3625	-5.3339	177.7368	37.8500	39	0	0 
02255.405	0.0547	-0.0156	0.9966	0.0000	0.0000	0.0000	-0.3625	-5.3339	177.7368	37.8800	39	0	0 
02255.405	0.0547	-0.0156	0.9966	0.0000	0.0000	0.0000	-0.3625	-5.3339	177.7368	37.8800	39	0	0 
02255.432	0.0547	-0.0156	0.9966	0.0000	0.0000	0.0000	-0.3625	-5.3339	177.7368	37.8800	39	0	0 
02255.434	0.0547	-0.0156	0.9966	0.0000	0.0000	0.0000	-0.3625	-5.3339	177.7368	37.7800	38	0	0 
02255.434	0.0547	-0.0156	0.9966	0.0000	0.0000	0.0000	-0.3625	-5.3339	177.7368	37.7800	38	0	0 
02255.434	0.0547	-0.0156	0.9966	0.0000	0.0000	0.0000	-0.3625	-5.3339	177.7368	37.8200	37	0	0 
02255.438	0.0547	-0.0156	0.9966	0.0000	0.0000	0.0000	-0.3625	-5.3339	177.7368	37.8200	37	0	0 
02255.438	0.0547	-0.0156	0.9966	0.0000	0.0000	0.0000	-0.3625	-5.3339	177.7368	37.9100	37	0	0 
02255.440	0.0547	-0.0156	0.9963	0.0000	0.0000	0.0000	-0.3625	-5.3339	177.7368	37.9100	38	0	0 
02255.459	0.0547	-0.0156	0.9963	0.0000	0.0000	0.0000	-0.3625	-5.3339	177.7368	37.8600	38	0	0 
02255.459	0.0547	-0.0156	0.9963	0.0000	0.0000	0.0000	-0.3625	-5.3339	177.7368	37.8600	38	0	0 
02255.462	0.0547	-0.0156	0.9963	0.0000	0.0000	0.0000	-0.3625	-5.3339	177.7368	37.8500	37	0	0 
02255.467	0.0547	-0.0156	0.9963	0.0000	0.0000	0.0000	-0.3625	-5.3339	177.7368	37.8500	37	0	0 
02255.470	0.0547	-0.0156	0.9963	0.0000	0.0000	0.0000	-0.3625	-5.3339	177.7368	37.8400	38	0	0 
02255.470	0.0547	-0.0156	0.9963	0.0000	0.0000	0.0000	-0.3625	-5.3339	177.7368	37.8400	37	0	0 
02255.482	0.0547	-0.0156	0.9963	0.0000	0.0000	0.0000	-0.3625	-5.3339	177.7368	37.9300	37	0	0 
02255.492	0.0544	-0.0156	0.9968	0.0000	0.0000	0.0000	-0.3625	-5.3339	177.7368	37.9300	36	0	0 
02255.492	0.0544	-0.0156	0.9968	0.0000	0.0000	0.0000	-0.3625	-5.3339	177.7368	37.8400	36	0	0 
02255.494	0.0544	-0.0156	0.9968	0.0000	0.0000	0.0000	-0.3625	-5.3339	177.7368	37.8400	36	0	0 
02255.503	0.0544	-0.0156	0.9968	0.0000	0.0000	0.0000	-0.3625	-5.3339	177.7368	37.8400	37	0	0 
02255.503	0.0544	-0.0156	0.9968	0.0000	0.0000	0.0000	-0.3625	-5.3339	177.7368	37.8200	39	0	0 
02255.512	0.0544	-0.0156	0.9968	0.0000	0.0000	0.0000	-0.3625	-5.3339	177.7368	37.8200	38	0	0 
02255.516	0.0544	-0.0156	0.9968	0.0000	0.0000	0.0000	-0.3625	-5.3339	177.7368	37.8900	38	0	0 
02255.516	0.0544	-0.0156	0.9968	0.0000	0.0000	0.0000	-0.3625	-5.3339	177.7368	37.8900	39	0	0 
02255.522	0.0547	-0.0156	0.9963	0.0000	0.0000	0.0000	-0.3625	-5.3339	177.7368	37.8700	39	0	0 
02255.532	0.0547	-0.0156	0.9963	0.0000	0.0000	0.0000	-0.3625	-5.3339	177.7368	37.8700	39	0	0 
02255.532	0.0547	-0.0156	0.9963	0.0000	0.0000	0.0000	-0.3625	-5.3339	177.7368	37.8800	39	0	0 
02255.538	0.0547	-0.0156	0.9963	0.0000	0.0000	0.0000	-0.3625	-5.3339	177.7368	37.8800	40	0	0 
02255.546	0.0547	-0.0156	0.9963	0.0000	0.0000	0.0000	-0.3625	-5.3339	177.7368	37.8100	41	0	0 
02255.549	0.0547	-0.0156	0.9963	0.0000	0.0000	0.0000	-0.3625	-5.3339	177.7368	37.8100	41	0	0 
02255.549	0.0547	-0.0156	0.9963	0.0000	0.0000	0.0000	-0.3625	-5.3339	177.7368	37.8500	40	0	0 
02255.560	0.0547	-0.0156	0.9963	0.0000	0.0000	0.0000	-0.3625	-5.3339	177.7368	37.8500	40	0	0 
02255.566	0.0542	-0.0156	0.9966	0.0000	0.0000	0.0000	-0.3625	-5.3339	177.7368	37.8400	40	0	0 
02255.566	0.0542	-0.0156	0.9966	0.0000	0.0000	0.0000	-0.3625	-5.3339	177.7368	37.8400	41	0	0 
02255.569	0.0542	-0.0156	0.9966	0.0000	0.0000	0.0000	-0.3625	-5.3339	177.7368	37.9100	41	0	0 
02255.582	0.0542	-0.0156	0.9966	0.0000	0.0000	0.0000	-0.3625	-5.3339	177.7368	37.9100	41	0	0 
02255.582	0.0542	-0.0156	0.9966	0.0000	0.0000	0.0000	-0.3625	-5.3339	177.7368	37.9100	41	0	0 
02255.610	0.0542	-0.0156	0.9966	0.0000	0.0000	0.0000	-0.3625	-5.3339	177.7368	37.8100	41	0	0 
02255.612	0.0542	-0.0156	0.9966	0.0000	0.0000	0.0000	-0.3625	-5.3339	177.7368	37.8100	41	0	0 
02255.612	0.0542	-0.0156	0.9966	0.0000	0.0000	0.0000	-0.3625	-5.3339	177.7368	37.8300	41	0	0 
02255.612	0.0542	-0.0154	0.9966	0.0000	0.0000	0.0000	-0.3625	-5.3339	177.7368	37.8300	41	0	0 
02255.614	0.0542	-0.0154	0.9966	0.0000	0.0000	0.0000	-0.3625	-5.3339	177.7368	37.8300	41	0	0 
02255.614	0.0542	-0.0154	0.9966	0.0000	0.0000	0.0000	-0.3625	-5.3339	177.7368	37.8300	41	0	0 
02255.616	0.0542	-0.0154	0.9966	0.0000	0.0000	0.0000	-0.3625	-5.3339	177.7368	37.9000	40	0	0 
02255.627	0.0542	-0.0154	0.9966	0.0000	0.0000	0.0000	-0.3625	-5.3339	177.7368	37.9000	40	0	0 
02255.634	0.0542	-0.0154	0.9966	0.0000	0.0000	0.0000	-0.3625	-5.3339	177.7368	37.8000	41	0	0 
02255.634	0.0542	-0.0154	0.9966	0.0000	0.0000	0.0000	-0.3625	-5.3339	177.7368	37.8000	42	0	0 
02255.640	0.0542	-0.0154	0.9966	0.0000	0.0000	0.0000	-0.3625	-5.3339	177.7368	37.8800	42	0	0 
02255.653	0.0542	-0.0151	0.9968	0.0000	0.0000	0.0000	-0.3625	-5.3339	177.7368	37.8800	42	0	0 
02255.653	0.0542	-0.0151	0.9968	0.0000	0.0000	0.0000	-0.3625	-5.3284	177.7368	37.9200	42	0	0 
02255.660	0.0542	-0.0151	0.9968	0.0000	0.0000	0.0000	-0.3625	-5.3284	177.7368	37.9200	42	0	0 
02255.662	0.0542	-0.0151	0.9968	0.0000	0.0000	0.0000	-0.3625	-5.3284	177.7368	37.8700	41	0	0 
02255.662	0.0542	-0.0151	0.9968	0.0000	0.0000	0.0000	-0.3625	-5.3284	177.7368	37.8700	40	0	0 
02255.669	0.0542	-0.0151	0.9968	0.0000	0.0000	0.0000	-0.3625	-5.3284	177.7368	37.8700	41	0	0 
02255.674	0.0542	-0.0151	0.9968	0.0000	0.0000	0.0000	-0.3625	-5.3284	177.7368	37.8200	41	0	0 
02255.674	0.0542	-0.0151	0.9968	0.0000	0.0000	0.0000	-0.3625	-5.3284	177.7368	37.8200	41	0	0 
02255.685	0.0542	-0.0151	0.9966	0.0000	0.0000	0.0000	-0.3625	-5.3284	177.7368	37.8500	42	0	0 
02255.687	0.0542	-0.0151	0.9966	0.0000	0.0000	0.0000	-0.3625	-5.3284	177.7368	37.8500	42	0	0 
02255.687	0.0542	-0.0151	0.9966	0.0000	0.0000	0.0000	-0.3625	-5.3284	177.7368	37.8900	42	0	0 
02255.699	0.0542	-0.0151	0.9966	0.0000	0.0000	0.0000	-0.3625	-5.3284	177.7368	37.8900	42	0	0 
02255.704	0.0542	-0.0151	0.9966	0.0000	0.0000	0.0000	-0.3625	-5.3284	177.7368	37.8300	41	0	0 
02255.713	0.0542	-0.0151	0.9966	0.0000	0.0000	0.0000	-0.3625	-5.3284	177.7368	37.8300	41	0	0 
02255.713	0.0542	-0.0151	0.9966	0.0000	0.0000	0.0000	-0.3625	-5.3284	177.7368	37.8300	41	0	0 
02255.716	0.0542	-0.0151	0.9966	0.0000	0.0000	0.0000	-0.3625	-5.3284	177.7368	37.8300	41	0	0 
02255.726	0.0549	-0.0146	0.9961	0.0000	0.0000	0.0000	-0.3625	-5.3284	177.7368	37.9000	40	0	0 
02255.726	0.0549	-0.0146	0.9961	0.0000	0.0000	0.0000	-0.3625	-5.3284	177.7368	37.9000	39	0	0 
02255.731	0.0549	-0.0146	0.9961	0.0000	0.0000	0.0000	-0.3625	-5.3284	177.7368	37.8700	39	0	0 
02255.741	0.0549	-0.0146	0.9961	0.0000	0.0000	0.0000	-0.3625	-5.3284	177.7368	37.8700	40	0	0 
02255.741	0.0549	-0.0146	0.9961	0.0000	0.0000	0.0000	-0.3625	-5.3284	177.7368	37.8700	39	0	0 
02255.746	0.0549	-0.0146	0.9961	0.0000	0.0000	0.0000	-0.3625	-5.3284	177.7368	37.8400	38	0	0 
02255.758	0.0549	-0.0146	0.9961	0.0000	0.0000	0.0000	-0.3625	-5.3284	177.7368	37.8400	37	0	0 
02255.758	0.0549	-0.0146	0.9961	0.0000	0.0000	0.0000	-0.3625	-5.3284	177.7368	37.8600	37	0	0 
02255.763	0.0547	-0.0146	0.9963	0.0000	0.0000	0.0000	-0.3625	-5.3284	177.7368	37.8600	37	0	0 
02255.775	0.0547	-0.0146	0.9963	0.0000	0.0000	0.0000	-0.3625	-5.3284	177.7368	37.8300	37	0	0 
02255.775	0.0547	-0.0146	0.9963	0.0000	0.0000	0.0000	-0.3625	-5.3284	177.7368	37.8300	37	0	0 
02255.777	0.0547	-0.0146	0.9963	0.0000	0.0000	0.0000	-0.3625	-5.3284	177.7368	37.7900	36	0	0 
02255.787	0.0547	-0.0146	0.9963	0.0000	0.0000	0.0000	-0.3625	-5.3284	177.7368	37.7900	36	0	0 
02255.787	0.0547	-0.0146	0.9963	0.0000	0.0000	0.0000	-0.3625	-5.3284	177.7368	37.8300	36	0	0 
02255.789	0.0547	-0.0146	0.9963	0.0000	0.0000	0.0000	-0.3625	-5.3284	177.7368	37.8300	37	0	0 
02255.801	0.0547	-0.0146	0.9963	0.0000	0.0000	0.0000	-0.3625	-5.3284	177.7368	37.8700	38	0	0 
02255.807	0.0549	-0.0154	0.9961	0.0000	0.0000	0.0000	-0.3625	-5.3284	177.7368	37.8700	38	0	0 
02255.807	0.0549	-0.0154	0.9961	0.0000	0.0000	0.0000	-0.3625	-5.3284	177.7368	37.8500	37	0	0 
02255.810	0.0549	-0.0154	0.9961	0.0000	0.0000	0.0000	-0.3625	-5.3284	177.7368	37.8500	38	0	0 
02255.837	0.0549	-0.0154	0.9961	0.0000	0.0000	0.0000	-0.3625	-5.3284	177.7368	37.8400	39	0	0 
02255.837	0.0549	-0.0154	0.9961	0.0000	0.0000	0.0000	-0.3625	-5.3284	177.7368	37.8400	39	0	0 
02255.839	0.0549	-0.0154	0.9961	0.0000	0.0000	0.0000	-0.3625	-5.3284	177.7368	37.8400	40	0	0 
02255.839	0.0549	-0.0154	0.9961	0.0000	0.0000	0.0000	-0.3625	-5.3284	177.7368	37.7900	40	0	0 
02255.839	0.0549	-0.0154	0.9961	0.0000	0.0000	0.0000	-0.3625	-5.3284	177.7368	37.7900	40	0	0 
02255.842	0.0547	-0.0151	0.9966	0.0000	0.0000	0.0000	-0.3625	-5.3284	177.7368	37.8300	39	0	0 
02255.848	0.0547	-0.0151	0.9966	0.0000	0.0000	0.0000	-0.3625	-5.3284	177.7368	37.8300	39	0	0 
02255.848	0.0547	-0.0151	0.9966	0.0000	0.0000	0.0000	-0.3625	-5.3284	177.7368	37.8200	39	0	0 
02255.857	0.0547	-0.0151	0.9966	0.0000	0.0000	0.0000	-0.3625	-5.3284	177.7368	37.8200	38	0	0 
02255.864	0.0547	-0.0151	0.9966	0.0000	0.0000	0.0000	-0.3625	-5.3284	177.7368	37.9100	38	0	0 
02255.864	0.0547	-0.0151	0.9966	0.0000	0.0000	0.0000	-0.3625	-5.3284	177.7368	37.9100	38	0	0 
02255.870	0.0547	-0.0151	0.9966	0.0000	0.0000	0.0000	-0.3625	-5.3284	177.7368	37.8900	38	0	0 
02255.881	0.0547	-0.0151	0.9966	0.0000	0.0000	0.0000	-0.3625	-5.3284	177.7368	37.8900	38	0	0 
02255.887	0.0544	-0.0156	0.9968	0.0000	0.0000	0.0000	-0.3625	-5.3284	177.7368	37.8700	39	0	0 
02255.887	0.0544	-0.0156	0.9968	0.0000	0.0000	0.0000	-0.3625	-5.3284	177.7368	37.8700	39	0	0 
02255.892	0.0544	-0.0156	0.9968	0.0000	0.0000	0.0000	-0.3625	-5.3284	177.7368	37.8900	39	0	0 
02255.901	0.0544	-0.0156	0.9968	0.0000	0.0000	0.0000	-0.3625	-5.3284	177.7368	37.8900	39	0	0 
02255.901	0.0544	-0.0156	0.9968	0.0000	0.0000	0.0000	-0.3625	-5.3284	177.7368	37.8500	39	0	0 
02255.905	0.0544	-0.0156	0.9968	0.0000	0.0000	0.0000	-0.3625	-5.3284	177.7368	37.8500	40	0	0 
02255.917	0.0544	-0.0156	0.9968	0.0000	0.0000	0.0000	-0.3625	-5.3284	177.7368	37.8500	40	0	0 
02255.917	0.0544	-0.0156	0.9968	0.0000	0.0000	0.0000	-0.3625	-5.3284	177.7368	37.8800	40	0	0 
02255.921	0.0542	-0.0161	0.9971	0.0000	0.0000	0.0000	-0.3625	-5.3284	177.7368	37.8800	39	0	0 
02255.930	0.0542	-0.0161	0.9971	0.0000	0.0000	0.0000	-0.3625	-5.3284	177.7368	37.8300	39	0	0 
02255.930	0.0542	-0.0161	0.9971	0.0000	0.0000	0.0000	-0.3625	-5.3284	177.7368	37.8300	39	0	0 
02255.936	0.0542	-0.0161	0.9971	0.0000	0.0000	0.0000	-0.3625	-5.3284	177.7368	37.8600	38	0	0 
02255.974	0.0542	-0.0161	0.9971	0.0000	0.0000	0.0000	-0.3625	-5.3284	177.7368	37.8600	39	0	0 
02255.974	0.0542	-0.0161	0.9971	0.0000	0.0000	0.0000	-0.3625	-5.3284	177.7368	37.8300	39	0	0 
02255.977	0.0542	-0.0161	0.9971	0.0000	0.0000	0.0000	-0.3625	-5.3284	177.7368	37.8300	40	0	0 
02255.981	0.0542	-0.0161	0.9971	0.0000	0.0000	0.0000	-0.3625	-5.3284	177.7368	37.8700	40	0	0 
02255.984	0.0544	-0.0159	0.9971	0.0000	0.0000	0.0000	-0.3625	-5.3284	177.7368	37.8700	40	0	0 
02255.984	0.0544	-0.0159	0.9971	0.0000	0.0000	0.0000	-0.3625	-5.3284	177.7368	37.9100	42	0	0 
02256.015	0.0544	-0.0159	0.9971	0.0000	0.0000	0.0000	-0.3625	-5.3284	177.7368	37.9100	43	0	0 
02256.017	0.0544	-0.0159	0.9971	0.0000	0.0000	0.0000	-0.3625	-5.3284	177.7368	37.8000	43	0	0 
02256.017	0.0544	-0.0159	0.9971	0.0000	0.0000	0.0000	-0.3625	-5.3284	177.7368	37.8000	42	0	0 
02256.017	0.0544	-0.0159	0.9971	0.0000	0.0000	0.0000	-0.3625	-5.3284	177.7368	37.8700	42	0	0 
02256.017	0.0544	-0.0159	0.9971	0.0000	0.0000	0.0000	-0.3625	-5.3284	177.7368	37.8700	42	0	0 
02256.017	0.0544	-0.0159	0.9971	0.0000	0.0000	0.0000	-0.3625	-5.3284	177.7368	37.8700	42	0	0 
02256.017	0.0544	-0.0161	0.9971	0.0000	0.0000	0.0000	-0.3625	-5.3284	177.7368	37.8600	42	0	0 
02256.017	0.0544	-0.0161	0.9971	0.0000	0.0000	0.0000	-0.3625	-5.3284	177.7368	37.8600	41	0	0 
02256.017	0.0544	-0.0161	0.9971	0.0000	0.0000	0.0000	-0.3625	-5.3284	177.7368	37.8800	40	0	0 
02256.020	0.0544	-0.0161	0.9971	0.0000	0.0000	0.0000	-0.3625	-5.3284	177.7368	37.8800	40	0	0 
02256.023	0.0544	-0.0161	0.9971	0.0000	0.0000	0.0000	-0.3625	-5.3284	177.7368	37.8400	40	0	0 
02256.023	0.0544	-0.0161	0.9971	0.0000	0.0000	0.0000	-0.3680	-5.3284	177.7368	37.8400	40	0	0 
02256.029	0.0544	-0.0161	0.9971	0.0000	0.0000	0.0000	-0.3680	-5.3284	177.7368	37.8900	39	0	0 
02256.046	0.0547	-0.0161	0.9968	0.0000	0.0000	0.0000	-0.3680	-5.3284	177.7368	37.8900	39	0	0 
02256.046	0.0547	-0.0161	0.9968	0.0000	0.0000	0.0000	-0.3680	-5.3284	177.7368	37.8500	38	0	0 
02256.047	0.0547	-0.0161	0.9968	0.0000	0.0000	0.0000	-0.3680	-5.3284	177.7368	37.8500	39	0	0 
02256.076	0.0547	-0.0161	0.9968	0.0000	0.0000	0.0000	-0.3680	-5.3284	177.7368	37.8600	40	0	0 
02256.100	0.0547	-0.0161	0.9968	0.0000	0.0000	0.0000	-0.3680	-5.3284	177.7368	37.8600	41	0	0 
02256.100	0.0547	-0.0161	0.9968	0.0000	0.0000	0.0000	-0.3680	-5.3284	177.7368	37.8500	42	0	0 
02256.103	0.0547	-0.0161	0.9968	0.0000	0.0000	0.0000	-0.3680	-5.3284	177.7368	37.8500	41	0	0 
02256.108	0.0547	-0.0161	0.9968	0.0000	0.0000	0.0000	-0.3680	-5.3284	177.7368	37.8600	41	0	0 
02256.108	0.0552	-0.0159	0.9966	0.0000	0.0000	0.0000	-0.3680	-5.3284	177.7368	37.8600	42	0	0 
02256.110	0.0552	-0.0159	0.9966	0.0000	0.0000	0.0000	-0.3680	-5.3284	177.7368	37.8600	43	0	0 
02256.112	0.0552	-0.0159	0.9966	0.0000	0.0000	0.0000	-0.3680	-5.3284	177.7368	37.7900	43	0	0 
02256.114	0.0552	-0.0159	0.9966	0.0000	0.0000	0.0000	-0.3680	-5.3284	177.7368	37.7900	43	0	0 
02256.114	0.0552	-0.0159	0.9966	0.0000	0.0000	0.0000	-0.3680	-5.3284	177.7368	37.8900	43	0	0 
02256.118	0.0552	-0.0159	0.9966	0.0000	0.0000	0.0000	-0.3680	-5.3284	177.7368	37.8900	42	0	0 
02256.123	0.0552	-0.0159	0.9966	0.0000	0.0000	0.0000	-0.3680	-5.3284	177.7368	37.8000	42	0	0 
02256.123	0.0552	-0.0159	0.9966	0.0000	0.0000	0.0000	-0.3680	-5.3284	177.7368	37.8000	42	0	0 
02256.130	0.0552	-0.0154	0.9966	0.0000	0.0000	0.0000	-0.3680	-5.3284	177.7368	37.8500	42	0	0 
02256.130	0.0552	-0.0154	0.9966	0.0000	0.0000	0.0000	-0.3680	-5.3284	177.7368	37.8500	42	0	0 
02256.137	0.0552	-0.0154	0.9966	0.0000	0.0000	0.0000	-0.3680	-5.3284	177.7368	37.9200	42	0	0 
02256.140	0.0552	-0.0154	0.9966	0.0000	0.0000	0.0000	-0.3680	-5.3284	177.7368	37.9200	41	0	0 
02256.143	0.0552	-0.0154	0.9966	0.0000	0.0000	0.0000	-0.3680	-5.3284	177.7368	37.8800	42	0	0 
02256.143	0.0552	-0.0154	0.9966	0.0000	0.0000	0.0000	-0.3680	-5.3284	177.7368	37.8800	42	0	0 
02256.145	0.0552	-0.0154	0.9966	0.0000	0.0000	0.0000	-0.3680	-5.3284	177.7368	37.8600	42	0	0 
02256.158	0.0552	-0.0154	0.9966	0.0000	0.0000	0.0000	-0.3680	-5.3284	177.7368	37.8600	42	0	0 
02256.158	0.0549	-0.0156	0.9966	0.0000	0.0000	0.0000	-0.3680	-5.3284	177.7368	37.8600	41	0	0 
02256.160	0.0549	-0.0156	0.9966	0.0000	0.0000	0.0000	-0.3680	-5.3339	177.7368	37.7700	40	0	0 
02256.192	0.0549	-0.0156	0.9966	0.0000	0.0000	0.0000	-0.3680	-5.3339	177.7368	37.7700	41	0	0 
02256.192	0.0549	-0.0156	0.9966	0.0000	0.0000	0.0000	-0.3680	-5.3339	177.7368	37.8400	42	0	0 
02256.194	0.0549	-0.0156	0.9966	0.0000	0.0000	0.0000	-0.3680	-5.3339	177.7368	37.8400	42	0	0 
02256.194	0.0549	-0.0156	0.9966	0.0000	0.0000	0.0000	-0.3680	-5.3339	177.7368	37.8900	42	0	0 
02256.194	0.0549	-0.0156	0.9966	0.0000	0.0000	0.0000	-0.3680	-5.3339	177.7368	37.8900	42	0	0 
02256.194	0.0549	-0.0156	0.9966	0.0000	0.0000	0.0000	-0.3680	-5.3339	177.7368	37.9000	41	0	0 
02256.204	0.0549	-0.0151	0.9963	0.0000	0.0000	0.0000	-0.3680	-5.3339	177.7368	37.9000	39	0	0 
02256.209	0.0549	-0.0151	0.9963	0.0000	0.0000	0.0000	-0.3680	-5.3339	177.7368	37.8800	39	0	0 
02256.209	0.0549	-0.0151	0.9963	0.0000	0.0000	0.0000	-0.3680	-5.3339	177.7368	37.8800	39	0	0 
02256.214	0.0549	-0.0151	0.9963	0.0000	0.0000	0.0000	-0.3680	-5.3339	177.7368	37.8800	38	0	0 
02256.222	0.0549	-0.0151	0.9963	0.0000	0.0000	0.0000	-0.3680	-5.3339	177.7368	37.8800	37	0	0 
02256.222	0.0549	-0.0151	0.9963	0.0000	0.0000	0.0000	-0.3680	-5.3339	177.7368	37.8600	38	0	0 
02256.226	0.0549	-0.0151	0.9963	0.0000	0.0000	0.0000	-0.3680	-5.3339	177.7368	37.8600	38	0	0 
02256.241	0.0549	-0.0151	0.9963	0.0000	0.0000	0.0000	-0.3680	-5.3339	177.7368	37.8000	39	0	0 
02256.241	0.0544	-0.0149	0.9966	0.0000	0.0000	0.0000	-0.3680	-5.3339	177.7368	37.8000	40	0	0 
02256.244	0.0544	-0.0149	0.9966	0.0000	0.0000	0.0000	-0.3680	-5.3339	177.7368	37.8000	41	0	0 
02256.249	0.0544	-0.0149	0.9966	0.0000	0.0000	0.0000	-0.3680	-5.3339	177.7368	37.8300	42	0	0 
02256.259	0.0544	-0.0149	0.9966	0.0000	0.0000	0.0000	-0.3680	-5.3339	177.7368	37.8300	42	0	0 
02256.259	0.0544	-0.0149	0.9966	0.0000	0.0000	0.0000	-0.3680	-5.3339	177.7368	37.8500	42	0	0 
02256.265	0.0544	-0.0149	0.9966	0.0000	0.0000	0.0000	-0.3680	-5.3339	177.7368	37.8500	41	0	0 
02256.268	0.0544	-0.0149	0.9966	0.0000	0.0000	0.0000	-0.3680	-5.3339	177.7368	37.9000	41	0	0 
02256.268	0.0544	-0.0149	0.9966	0.0000	0.0000	0.0000	-0.3680	-5.3339	177.7368	37.9000	42	0	0 
02256.280	0.0547	-0.0154	0.9963	0.0000	0.0000	0.0000	-0.3680	-5.3339	177.7368	37.9200	43	0	0 
02256.293	0.0547	-0.0154	0.9963	0.0000	0.0000	0.0000	-0.3680	-5.3339	177.7368	37.9200	44	0	0 
02256.293	0.0547	-0.0154	0.9963	0.0000	0.0000	0.0000	-0.3680	-5.3339	177.7368	37.8400	44	0	0 
02256.295	0.0547	-0.0154	0.9963	0.0000	0.0000	0.0000	-0.3680	-5.3339	177.7368	37.8400	44	0	0 
02256.301	0.0547	-0.0154	0.9963	0.0000	0.0000	0.0000	-0.3680	-5.3339	177.7368	37.8500	44	0	0 
02256.301	0.0547	-0.0154	0.9963	0.0000	0.0000	0.0000	-0.3680	-5.3339	177.7368	37.8500	44	0	0 
02256.310	0.0547	-0.0154	0.9963	0.0000	0.0000	0.0000	-0.3680	-5.3339	177.7368	37.8400	44	0	0 
02256.315	0.0547	-0.0154	0.9963	0.0000	0.0000	0.0000	-0.3680	-5.3339	177.7368	37.8400	44	0	0 
02256.315	0.0544	-0.0149	0.9966	0.0000	0.0000	0.0000	-0.3680	-5.3339	177.7368	37.8600	43	0	0 
02256.326	0.0544	-0.0149	0.9966	0.0000	0.0000	0.0000	-0.3680	-5.3339	177.7368	37.8600	44	0	0 
02256.328	0.0544	-0.0149	0.9966	0.0000	0.0000	0.0000	-0.3680	-5.3339	177.7368	37.8600	44	0	0 
02256.328	0.0544	-0.0149	0.9966	0.0000	0.0000	0.0000	-0.3680	-5.3339	177.7368	37.7700	44	0	0 
02256.345	0.0544	-0.0149	0.9966	0.0000	0.0000	0.0000	-0.3680	-5.3339	177.7368	37.7700	43	0	0 
02256.357	0.0544	-0.0149	0.9966	0.0000	0.0000	0.0000	-0.3680	-5.3339	177.7368	37.8300	43	0	0 
02256.362	0.0544	-0.0149	0.9966	0.0000	0.0000	0.0000	-0.3680	-5.3339	177.7368	37.8300	43	0	0 
02256.362	0.0544	-0.0149	0.9966	0.0000	0.0000	0.0000	-0.3680	-5.3339	177.7368	37.9000	42	0	0 
02256.365	0.0544	-0.0154	0.9966	0.0000	0.0000	0.0000	-0.3680	-5.3339	177.7368	37.9000	41	0	0 
02256.367	0.0544	-0.0154	0.9966	0.0000	0.0000	0.0000	-0.3680	-5.3339	177.7368	37.8500	40	0	0 
02256.367	0.0544	-0.0154	0.9966	0.0000	0.0000	0.0000	-0.3680	-5.3339	177.7368	37.8500	39	0	0 
02256.370	0.0544	-0.0154	0.9966	0.0000	0.0000	0.0000	-0.3680	-5.3339	177.7368	37.8400	38	0	0 
02256.385	0.0544	-0.0154	0.9966	0.0000	0.0000	0.0000	-0.3680	-5.3339	177.7368	37.8400	38	0	0 
02256.385	0.0544	-0.0154	0.9966	0.0000	0.0000	0.0000	-0.3680	-5.3284	177.7368	37.8100	38	0	0 
02256.388	0.0544	-0.0154	0.9966	0.0000	0.0000	0.0000	-0.3680	-5.3284	177.7368	37.8100	38	0	0 
02256.395	0.0544	-0.0154	0.9966	0.0000	0.0000	0.0000	-0.3680	-5.3284	177.7368	37.8800	38	0	0 
02256.395	0.0547	-0.0154	0.9963	0.0000	0.0000	0.0000	-0.3680	-5.3284	177.7368	37.8800	38	0	0 
02256.419	0.0547	-0.0154	0.9963	0.0000	0.0000	0.0000	-0.3680	-5.3284	177.7368	37.8300	38	0	0 
02256.421	0.0547	-0.0154	0.9963	0.0000	0.0000	0.0000	-0.3680	-5.3284	177.7368	37.8300	38	0	0 
02256.421	0.0547	-0.0154	0.9963	0.0000	0.0000	0.0000	-0.3680	-5.3284	177.7368	37.8300	38	0	0 
02256.421	0.0547	-0.0154	0.9963	0.0000	0.0000	0.0000	-0.3680	-5.3284	177.7368	37.8100	37	0	0 
02256.425	0.0547	-0.0154	0.9963	0.0000	0.0000	0.0000	-0.3680	-5.3284	177.7368	37.8100	37	0	0 
02256.435	0.0547	-0.0154	0.9963	0.0000	0.0000	0.0000	-0.3680	-5.3284	177.7368	37.8400	38	0	0 
02256.435	0.0547	-0.0154	0.9963	0.0000	0.0000	0.0000	-0.3680	-5.3284	177.7368	37.8400	39	0	0 
02256.438	0.0547	-0.0159	0.9963	0.0000	0.0000	0.0000	-0.3680	-5.3284	177.7368	37.8500	39	0	0 
02256.449	0.0547	-0.0159	0.9963	0.0000	0.0000	0.0000	-0.3680	-5.3284	177.7368	37.8500	39	0	0 
02256.449	0.0547	-0.0159	0.9963	0.0000	0.0000	0.0000	-0.3680	-5.3284	177.7368	37.9000	40	0	0 
02256.454	0.0547	-0.0159	0.9963	0.0000	0.0000	0.0000	-0.3680	-5.3284	177.7368	37.9000	40	0	0 
02256.460	0.0547	-0.0159	0.9963	0.0000	0.0000	0.0000	-0.3680	-5.3339	177.7368	37.7900	40	0	0 
02256.460	0.0547	-0.0159	0.9963	0.0000	0.0000	0.0000	-0.3680	-5.3339	177.7368	37.7900	39	0	0 
02256.470	0.0547	-0.0159	0.9963	0.0000	0.0000	0.0000	-0.3680	-5.3339	177.7368	37.8000	39	0	0 
02256.481	0.0547	-0.0159	0.9963	0.0000	0.0000	0.0000	-0.3680	-5.3339	177.7368	37.8000	39	0	0 
02256.481	0.0549	-0.0156	0.9963	0.0000	0.0000	0.0000	-0.3680	-5.3339	177.7368	37.8000	39	0	0 
02256.484	0.0549	-0.0156	0.9963	0.0000	0.0000	0.0000	-0.3680	-5.3339	177.7368	37.8000	39	0	0 
02256.488	0.0549	-0.0156	0.9963	0.0000	0.0000	0.0000	-0.3680	-5.3339	177.7368	37.8000	39	0	0 
02256.513	0.0549	-0.0156	0.9963	0.0000	0.0000	0.0000	-0.3680	-5.3339	177.7368	37.8200	39	0	0 
02256.513	0.0549	-0.0156	0.9963	0.0000	0.0000	0.0000	-0.3680	-5.3339	177.7368	37.8200	39	0	0 
02256.515	0.0549	-0.0156	0.9963	0.0000	0.0000	0.0000	-0.3680	-5.3339	177.7368	37.8700	39	0	0 
02256.520	0.0549	-0.0156	0.9963	0.0000	0.0000	0.0000	-0.3680	-5.3339	177.7368	37.8700	39	0	0 
02256.520	0.0549	-0.0156	0.9963	0.0000	0.0000	0.0000	-0.3680	-5.3339	177.7368	37.8500	39	0	0 
02256.525	0.0552	-0.0154	0.9963	0.0000	0.0000	0.0000	-0.3680	-5.3339	177.7368	37.8500	40	0	0 
02256.528	0.0552	-0.0154	0.9963	0.0000	0.0000	0.0000	-0.3680	-5.3339	177.7368	37.8500	40	0	0 
02256.528	0.0552	-0.0154	0.9963	0.0000	0.0000	0.0000	-0.3680	-5.3339	177.7368	37.8500	41	0	0 
02256.537	0.0552	-0.0154	0.9963	0.0000	0.0000	0.0000	-0.3680	-5.3339	177.7368	37.8900	41	0	0 
02256.539	0.0552	-0.0154	0.9963	0.0000	0.0000	0.0000	-0.3680	-5.3339	177.7368	37.8900	42	0	0 
02256.539	0.0552	-0.0154	0.9963	0.0000	0.0000	0.0000	-0.3680	-5.3339	177.7368	37.8500	42	0	0 
02256.552	0.0552	-0.0154	0.9963	0.0000	0.0000	0.0000	-0.3680	-5.3339	177.7368	37.8500	41	0	0 
02256.554	0.0552	-0.0154	0.9963	0.0000	0.0000	0.0000	-0.3680	-5.3339	177.7368	37.8400	41	0	0 
02256.554	0.0549	-0.0156	0.9968	0.0000	0.0000	0.0000	-0.3680	-5.3339	177.7368	37.8400	41	0	0 
02256.566	0.0549	-0.0156	0.9968	0.0000	0.0000	0.0000	-0.3680	-5.3339	177.7368	37.9000	41	0	0 
02256.570	0.0549	-0.0156	0.9968	0.0000	0.0000	0.0000	-0.3680	-5.3339	177.7368	37.9000	39	0	0 
02256.577	0.0549	-0.0156	0.9968	0.0000	0.0000	0.0000	-0.3680	-5.3339	177.7368	37.9000	38	0	0 
02256.577	0.0549	-0.0156	0.9968	0.0000	0.0000	0.0000	-0.3680	-5.3339	177.7368	37.8600	39	0	0 
02256.612	0.0549	-0.0156	0.9968	0.0000	0.0000	0.0000	-0.3680	-5.3339	177.7368	37.8600	39	0	0 
02256.617	0.0549	-0.0156	0.9968	0.0000	0.0000	0.0000	-0.3680	-5.3339	177.7368	37.8900	40	0	0 
02256.617	0.0549	-0.0156	0.9968	0.0000	0.0000	0.0000	-0.3680	-5.3339	177.7368	37.8900	41	0	0 
02256.621	0.0549	-0.0149	0.9971	0.0000	0.0000	0.0000	-0.3680	-5.3339	177.7368	37.9100	41	0	0 
02256.644	0.0549	-0.0149	0.9971	0.0000	0.0000	0.0000	-0.3680	-5.3339	177.7368	37.9100	42	0	0 
02256.644	0.0549	-0.0149	0.9971	0.0000	0.0000	0.0000	-0.3680	-5.3339	177.7368	37.9000	42	0	0 
02256.646	0.0549	-0.0149	0.9971	0.0000	0.0000	0.0000	-0.3680	-5.3339	177.7368	37.9000	42	0	0 
02256.646	0.0549	-0.0149	0.9971	0.0000	0.0000	0.0000	-0.3680	-5.3339	177.7368	37.8900	42	0	0 
02256.646	0.0549	-0.0149	0.9971	0.0000	0.0000	0.0000	-0.3680	-5.3339	177.7368	37.8900	42	0	0 
02256.646	0.0549	-0.0149	0.9971	0.0000	0.0000	0.0000	-0.3680	-5.3339	177.7368	37.8100	41	0	0 
02256.646	0.0549	-0.0149	0.9971	0.0000	0.0000	0.0000	-0.3680	-5.3339	177.7368	37.8100	41	0	0 
02256.646	0.0544	-0.0156	0.9973	0.0000	0.0000	0.0000	-0.3680	-5.3339	177.7368	37.8600	41	0	0 
02256.648	0.0544	-0.0156	0.9973	0.0000	0.0000	0.0000	-0.3680	-5.3339	177.7368	37.8600	41	0	0 
02256.650	0.0544	-0.0156	0.9973	0.0000	0.0000	0.0000	-0.3680	-5.3339	177.7368	37.8000	40	0	0 
02256.660	0.0544	-0.0156	0.9973	0.0000	0.0000	0.0000	-0.3680	-5.3339	177.7368	37.8000	40	0	0 
02256.660	0.0544	-0.0156	0.9973	0.0000	0.0000	0.0000	-0.3680	-5.3339	177.7368	37.8000	40	0	0 
02256.670	0.0544	-0.0156	0.9973	0.0000	0.0000	0.0000	-0.3680	-5.3339	177.7368	37.8400	39	0	0 
02256.672	0.0544	-0.0156	0.9973	0.0000	0.0000	0.0000	-0.3680	-5.3339	177.7368	37.8400	39	0	0 
02256.672	0.0544	-0.0156	0.9973	0.0000	0.0000	0.0000	-0.3680	-5.3339	177.7368	37.8100	39	0	0 
02256.681	0.0547	-0.0156	0.9980	0.0000	0.0000	0.0000	-0.3680	-5.3339	177.7368	37.8100	39	0	0 
02256.684	0.0547	-0.0156	0.9980	0.0000	0.0000	0.0000	-0.3680	-5.3339	177.7368	37.8800	40	0	0 
02256.684	0.0547	-0.0156	0.9980	0.0000	0.0000	0.0000	-0.3680	-5.3339	177.7368	37.8800	40	0	0 
02256.695	0.0547	-0.0156	0.9980	0.0000	0.0000	0.0000	-0.3680	-5.3339	177.7368	37.8500	41	0	0 
02256.703	0.0547	-0.0156	0.9980	0.0000	0.0000	0.0000	-0.3680	-5.3339	177.7368	37.8500	42	0	0 
02256.703	0.0547	-0.0156	0.9980	0.0000	0.0000	0.0000	-0.3680	-5.3339	177.7368	37.8700	41	0	0 
02256.709	0.0547	-0.0156	0.9980	0.0000	0.0000	0.0000	-0.3680	-5.3339	177.7368	37.8700	41	0	0 
02256.716	0.0547	-0.0156	0.9980	0.0000	0.0000	0.0000	-0.3680	-5.3339	177.7368	37.8700	40	0	0 
02256.716	0.3711	-0.0530	1.0676	0.0000	0.0000	0.0000	-0.3735	-5.3778	177.7368	37.8700	39	0	0 
02256.721	0.3711	-0.0530	1.0676	0.0000	0.0000	0.0000	-0.3790	-5.4272	177.7313	37.8500	39	0	0 
02256.732	0.3711	-0.0530	1.0676	0.0000	0.0000	0.0000	-0.3845	-5.4767	177.7313	37.8500	39	0	0 
02256.732	0.3711	-0.0530	1.0676	0.0000	0.0000	0.0000	-0.3900	-5.5206	177.7313	37.8600	39	0	0 
02256.735	0.3711	-0.0530	1.0676	0.0000	0.0000	0.0000	-0.3955	-5.5701	177.7313	37.8600	38	0	0 
02256.746	0.3711	-0.0530	1.0676	0.0000	0.0000	0.0000	-0.4010	-5.6195	177.7313	37.8600	38	0	0 
02256.751	0.3711	-0.0530	1.0676	0.0000	0.0000	0.0000	-0.4065	-5.6635	177.7258	37.8300	37	0	0 
02256.751	0.3711	-0.0530	1.0676	0.0000	0.0000	0.0000	-0.4120	-5.7129	177.7258	37.8300	38	0	0 
02256.760	0.8000	-0.1150	1.0442	0.0000	-1.4038	0.3662	-0.4285	-5.8173	177.7203	37.8500	38	0	0 
02256.764	0.8000	-0.1150	1.0442	0.0000	-1.4038	0.3662	-0.4395	-5.9216	177.7203	37.8500	39	0	0 
02256.765	0.8000	-0.1150	1.0442	0.0000	-1.4038	0.3662	-0.4559	-6.0315	177.7148	37.8400	40	0	0 
02256.772	0.8000	-0.1150	1.0442	0.0000	-1.4038	0.3662	-0.4724	-6.1359	177.7094	37.8400	39	0	0 
02256.785	0.8000	-0.1150	1.0442	0.0000	-1.4038	0.3662	-0.4889	-6.2402	177.7094	37.8600	38	0	0 
02256.785	0.8000	-0.1150	1.0442	0.0000	-1.4038	0.3662	-0.4999	-6.3446	177.7039	37.8600	37	0	0 
02256.787	0.8000	-0.1150	1.0442	0.0000	-1.4038	0.3662	-0.5164	-6.4545	177.7039	37.8500	35	0	0 
02256.796	0.8000	-0.1150	1.0442	0.0000	-1.4038	0.3662	-0.5328	-6.5588	177.6984	37.8500	35	0	0 
02256.796	1.4771	-0.2087	1.0020	0.1221	-4.5166	1.0986	-0.5603	-6.7236	177.6874	37.8700	34	0	0 
02256.822	1.4771	-0.2087	1.0020	0.1221	-4.5166	1.0986	-0.5823	-6.8939	177.6819	37.8700	32	0	0 
02256.824	1.4771	-0.2087	1.0020	0.1221	-4.5166	1.0986	-0.6097	-7.0642	177.6709	37.8200	31	0	0 
02256.824	1.4771	-0.2087	1.0020	0.1221	-4.5166	1.0986	-0.6372	-7.2290	177.6599	37.8200	31	0	0 
02256.824	1.4771	-0.2087	1.0020	0.1221	-4.5166	1.0986	-0.6647	-7.3993	177.6544	37.8700	31	0	0 
02256.833	1.4771	-0.2087	1.0020	0.1221	-4.5166	1.0986	-0.6921	-7.5641	177.6434	37.8700	31	0	0 
02256.844	1.4771	-0.2087	1.0020	0.1221	-4.5166	1.0986	-0.7196	-7.7344	177.6324	37.8700	31	0	0 
02256.844	1.4771	-0.2087	1.0020	0.1221	-4.5166	1.0986	-0.7471	-7.8992	177.6270	37.8500	31	0	0 
02256.851	2.1294	-0.3083	0.8938	0.3662	-7.6904	2.0752	-0.7855	-8.1079	177.6105	37.8500	32	0	0 
02256.857	2.1294	-0.3083	0.8938	0.3662	-7.6904	2.0752	-0.8295	-8.3167	177.5940	37.8200	33	0	0 
02256.857	2.1294	-0.3083	0.8938	0.3662	-7.6904	2.0752	-0.8679	-8.5254	177.5775	37.8200	35	0	0 
02256.859	2.1294	-0.3083	0.8938	0.3662	-7.6904	2.0752	-0.9119	-8.7341	177.5555	37.8300	35	0	0 
02256.861	2.1294	-0.3083	0.8938	0.3662	-7.6904	2.0752	-0.9503	-8.9374	177.5391	37.8300	35	0	0 
02256.861	2.1294	-0.3083	0.8938	0.3662	-7.6904	2.0752	-0.9943	-9.1461	177.5281	37.8600	35	0	0 
02256.875	2.1294	-0.3083	0.8938	0.3662	-7.6904	2.0752	-1.0327	-9.3494	177.5116	37.8600	36	0	0 
02256.878	2.1294	-0.3083	0.8938	0.3662	-7.6904	2.0752	-1.0767	-9.5581	177.4951	37.8600	37	0	0 
02256.878	2.4722	-0.3748	0.8179	0.5493	-8.1787	2.8687	-1.1261	-9.7723	177.4731	37.8600	38	0	0 
02256.888	2.4722	-0.3748	0.8179	0.5493	-8.1787	2.8687	-1.1810	-9.9866	177.4512	37.8600	40	0	0 
02256.895	2.4722	-0.3748	0.8179	0.5493	-8.1787	2.8687	-1.2305	-10.2008	177.4292	37.8600	40	0	0 
02256.898	2.4722	-0.3748	0.8179	0.5493	-8.1787	2.8687	-1.2799	-10.4150	177.4072	37.8500	40	0	0 
02256.898	2.4722	-0.3748	0.8179	0.5493	-8.1787	2.8687	-1.3348	-10.6293	177.3853	37.8500	40	0	0 
02256.923	2.4722	-0.3748	0.8179	0.5493	-8.1787	2.8687	-1.3843	-10.8380	177.3633	37.8500	41	0	0 
02256.932	2.4722	-0.3748	0.8179	0.5493	-8.1787	2.8687	-1.4337	-11.0522	177.3468	37.8600	41	0	0 
02256.932	2.4722	-0.3748	0.8179	0.5493	-8.1787	2.8687	-1.4832	-11.2665	177.3248	37.8600	42	0	0 
02256.936	2.3896	-0.3677	0.6892	0.4883	-4.3945	3.1128	-1.5436	-11.4587	177.2974	37.8500	43	0	0 
02256.938	2.3896	-0.3677	0.6892	0.4883	-4.3945	3.1128	-1.6040	-11.6565	177.2754	37.8500	43	0	0 
02256.938	2.3896	-0.3677	0.6892	0.4883	-4.3945	3.1128	-1.6589	-11.8488	177.2479	37.7500	45	0	0 
02256.944	2.3896	-0.3677	0.6892	0.4883	-4.3945	3.1128	-1.7194	-12.0465	177.2260	37.7500	46	0	0 
02256.947	2.3896	-0.3677	0.6892	0.4883	-4.3945	3.1128	-1.7743	-12.2388	177.1985	37.8900	46	0	0 
02256.947	2.3896	-0.3677	0.6892	0.4883	-4.3945	3.1128	-1.8292	-12.4310	177.1765	37.8900	47	0	0 
02256.949	2.3896	-0.3677	0.6892	0.4883	-4.3945	3.1128	-1.8896	-12.6288	177.1490	37.8500	48	0	0 
02256.965	2.3896	-0.3677	0.6892	0.4883	-4.3945	3.1128	-1.9446	-12.8210	177.1271	37.8500	49	0	0 
02256.965	1.9375	-0.3074	0.6248	0.2441	4.3335	2.6855	-1.9995	-12.9639	177.1051	37.8300	49	0	0 
02256.967	1.9375	-0.3074	0.6248	0.2441	4.3335	2.6855	-2.0544	-13.1067	177.0831	37.8300	48	0	0 
02256.969	1.9375	-0.3074	0.6248	0.2441	4.3335	2.6855	-2.1094	-13.2550	177.0557	37.8500	50	0	0 
02256.969	1.9375	-0.3074	0.6248	0.2441	4.3335	2.6855	-2.1588	-13.3978	177.0337	37.8500	51	0	0 
02256.978	1.9375	-0.3074	0.6248	0.2441	4.3335	2.6855	-2.2137	-13.5406	177.0117	37.8600	52	0	0 
02256.988	1.9375	-0.3074	0.6248	0.2441	4.3335	2.6855	-2.2687	-13.6835	176.9897	37.8600	52	0	0 
02256.993	1.9375	-0.3074	0.6248	0.2441	4.3335	2.6855	-2.3181	-13.8263	176.9678	37.8600	52	0	0 
02256.993	1.9375	-0.3074	0.6248	0.2441	4.3335	2.6855	-2.3730	-13.9691	176.9458	37.9000	53	0	0 
02257.001	1.2363	-0.1978	0.4761	0.0000	16.1133	2.0752	-2.4170	-14.0460	176.9238	37.9000	53	0	0 
02257.006	1.2363	-0.1978	0.4761	0.0000	16.1133	2.0752	-2.4609	-14.1229	176.9019	37.8500	53	0	0 
02257.006	1.2363	-0.1978	0.4761	0.0000	16.1133	2.0752	-2.5104	-14.1998	176.8854	37.8500	54	0	0 
02257.015	1.2363	-0.1978	0.4761	0.0000	16.1133	2.0752	-2.5543	-14.2767	176.8634	37.8700	54	0	0 
02257.021	1.2363	-0.1978	0.4761	0.0000	16.1133	2.0752	-2.5983	-14.3536	176.8414	37.8700	55	0	0 
02257.021	1.2363	-0.1978	0.4761	0.0000	16.1133	2.0752	-2.6422	-14.4305	176.8195	37.8600	56	0	0 
02257.051	1.2363	-0.1978	0.4761	0.0000	16.1133	2.0752	-2.6862	-14.5074	176.8030	37.8600	57	0	0 
02257.053	1.2363	-0.1978	0.4761	0.0000	16.1133	2.0752	-2.7301	-14.5844	176.7810	37.8600	58	0	0 
02257.053	0.5271	-0.0835	0.2971	-0.1831	27.3438	1.8921	-2.7631	-14.5844	176.7700	37.8600	58	0	0 
02257.065	0.5271	-0.0835	0.2971	-0.1831	27.3438	1.8921	-2.7905	-14.5844	176.7590	37.8900	58	0	0 
02257.099	0.5271	-0.0835	0.2971	-0.1831	27.3438	1.8921	-2.8235	-14.5844	176.7480	37.8900	59	0	0 
02257.099	0.5271	-0.0835	0.2971	-0.1831	27.3438	1.8921	-2.8510	-14.5844	176.7371	37.9000	60	0	0 
02257.107	0.5271	-0.0835	0.2971	-0.1831	27.3438	1.8921	-2.8839	-14.5844	176.7206	37.9000	60	0	0 
02257.114	0.5271	-0.0835	0.2971	-0.1831	27.3438	1.8921	-2.9114	-14.5844	176.7096	37.8700	61	0	0 
02257.122	0.5271	-0.0835	0.2971	-0.1831	27.3438	1.8921	-2.9443	-14.5844	176.6986	37.8700	60	0	0 
02257.122	0.5271	-0.0835	0.2971	-0.1831	27.3438	1.8921	-2.9718	-14.5898	176.6876	37.8700	60	0	0 
02257.131	-0.0105	0.0039	0.1494	-0.1221	36.0718	2.6855	-2.9608	-14.3591	176.6931	37.8600	60	0	0 
02257.143	-0.0105	0.0039	0.1494	-0.1221	36.0718	2.6855	-2.9443	-14.1284	176.6986	37.8600	60	0	0 
02257.143	-0.0105	0.0039	0.1494	-0.1221	36.0718	2.6855	-2.9333	-13.9032	176.7041	37.9000	59	0	0 
02257.145	-0.0105	0.0039	0.1494	-0.1221	36.0718	2.6855	-2.9224	-13.6725	176.7096	37.9000	59	0	0 
02257.151	-0.0105	0.0039	0.1494	-0.1221	36.0718	2.6855	-2.9059	-13.4473	176.7151	37.8600	59	0	0 
02257.151	-0.0105	0.0039	0.1494	-0.1221	36.0718	2.6855	-2.8949	-13.2220	176.7206	37.8600	60	0	0 
02257.163	-0.0105	0.0039	0.1494	-0.1221	36.0718	2.6855	-2.8784	-12.9968	176.7261	37.8800	59	0	0 
02257.167	-0.0105	0.0039	0.1494	-0.1221	36.0718	2.6855	-2.8674	-12.7716	176.7316	37.8800	59	0	0 
02257.167	-0.3247	0.0549	0.0596	0.0000	41.3208	4.7607	-2.7521	-12.3431	176.6547	37.8700	58	0	0 
02257.170	-0.3247	0.0549	0.0596	0.0000	41.3208	4.7607	-2.6422	-11.9202	176.5833	37.8700	59	0	0 
02257.185	-0.3247	0.0549	0.0596	0.0000	41.3208	4.7607	-2.5323	-11.4972	176.5063	37.8400	59	0	0 
02257.185	-0.3247	0.0549	0.0596	0.0000	41.3208	4.7607	-2.4170	-11.0687	176.4349	37.8400	60	0	0 
02257.191	-0.3247	0.0549	0.0596	0.0000	41.3208	4.7607	-2.3071	-10.6458	176.3635	37.9000	60	0	0 
02257.193	-0.3247	0.0549	0.0596	0.0000	41.3208	4.7607	-2.2028	-10.2228	176.2976	37.9000	59	0	0 
02257.269	-0.3247	0.0549	0.0596	0.0000	41.3208	4.7607	-2.0929	-9.8053	176.2262	37.8500	59	0	0 
02257.269	-0.3247	0.0549	0.0596	0.0000	41.3208	4.7607	-1.9830	-9.3823	176.1603	37.8500	58	0	0 
02257.274	-0.4448	0.0754	0.0295	0.0610	42.6025	8.1177	-1.8237	-8.9703	176.0614	37.8500	57	0	0 
02257.309	-0.4448	0.0754	0.0295	0.0610	42.6025	8.1177	-1.6644	-8.5638	175.9625	37.8900	56	0	0 
02257.309	-0.4448	0.0754	0.0295	0.0610	42.6025	8.1177	-1.5106	-8.1519	175.8636	37.8900	56	0	0 
02257.340	-0.4448	0.0754	0.0295	0.0610	42.6025	8.1177	-1.3513	-7.7454	175.7703	37.9100	55	0	0 
02257.342	-0.4448	0.0754	0.0295	0.0610	42.6025	8.1177	-1.1975	-7.3389	175.6769	37.9100	54	0	0 
02257.342	-0.4448	0.0754	0.0295	0.0610	42.6025	8.1177	-1.0382	-6.9324	175.5835	37.9100	53	0	0 
02257.345	-0.4448	0.0754	0.0295	0.0610	42.6025	8.1177	-0.8844	-6.5259	175.4956	37.9100	52	0	0 
02257.347	-0.4448	0.0754	0.0295	0.0610	42.6025	8.1177	-0.7306	-6.1194	175.4022	37.8200	52	0	0 
02257.347	-0.4377	0.0789	0.0481	0.1221	40.4053	12.7563	-0.5988	-5.7184	175.3583	37.8200	52	0	0 
02257.363	-0.4377	0.0789	0.0481	0.1221	40.4053	12.7563	-0.4724	-5.3119	175.3143	37.8600	52	0	0 
02257.380	-0.4377	0.0789	0.0481	0.1221	40.4053	12.7563	-0.3406	-4.9164	175.2759	37.8600	52	0	0 
02257.380	-0.4377	0.0789	0.0481	0.1221	40.4053	12.7563	-0.2087	-4.5154	175.2319	37.8500	51	0	0 
02257.399	-0.4377	0.0789	0.0481	0.1221	40.4053	12.7563	-0.0769	-4.1144	175.1935	37.8500	50	0	0 
02257.429	-0.4377	0.0789	0.0481	0.1221	40.4053	12.7563	0.0439	-3.7189	175.1550	37.8900	49	0	0 
02257.429	-0.4377	0.0789	0.0481	0.1221	40.4053	12.7563	0.1758	-3.3179	175.1166	37.8900	48	0	0 
02257.456	-0.4377	0.0789	0.0481	0.1221	40.4053	12.7563	0.3021	-2.9224	175.0836	37.8900	44	0	0 
02257.460	-0.3735	0.1184	0.2205	0.5493	32.2876	18.6157	0.3735	-2.6038	175.1440	37.8100	42	0	0 
02257.468	-0.3735	0.1184	0.2205	0.5493	32.2876	18.6157	0.4449	-2.2797	175.2045	37.8100	39	0	0 
02257.468	-0.3735	0.1184	0.2205	0.5493	32.2876	18.6157	0.5164	-1.9611	175.2704	37.8600	37	0	0 
02257.476	-0.3735	0.1184	0.2205	0.5493	32.2876	18.6157	0.5878	-1.6425	175.3308	37.8600	36	0	0 
02257.507	-0.3735	0.1184	0.2205	0.5493	32.2876	18.6157	0.6592	-1.3239	175.3967	37.9200	36	0	0 
02257.507	-0.3735	0.1184	0.2205	0.5493	32.2876	18.6157	0.7306	-1.0107	175.4572	37.9200	36	0	0 
02257.529	-0.3735	0.1184	0.2205	0.5493	32.2876	18.6157	0.8020	-0.6921	175.5231	37.8500	36	0	0 
02257.547	-0.3735	0.1184	0.2205	0.5493	32.2876	18.6157	0.8789	-0.3790	175.5890	37.8500	35	0	0 
02257.547	-0.4082	0.1536	0.3958	1.5259	17.3950	24.5972	0.9393	-0.1703	175.6989	37.8300	35	0	0 
02257.563	-0.4082	0.1536	0.3958	1.5259	17.3950	24.5972	1.0052	0.0275	175.8087	37.8300	35	0	0 
02257.605	-0.4082	0.1536	0.3958	1.5259	17.3950	24.5972	1.0657	0.2362	175.9131	37.8700	35	0	0 
02257.605	-0.4082	0.1536	0.3958	1.5259	17.3950	24.5972	1.1316	0.4395	176.0229	37.8700	35	0	0 
02257.605	-0.4082	0.1536	0.3958	1.5259	17.3950	24.5972	1.1920	0.6427	176.1328	37.8000	36	0	0 
02257.634	-0.4082	0.1536	0.3958	1.5259	17.3950	24.5972	1.2579	0.8459	176.2427	37.8000	37	0	0 
02257.634	-0.4082	0.1536	0.3958	1.5259	17.3950	24.5972	1.3239	1.0492	176.3525	37.8500	38	0	0 
02257.634	-0.4082	0.1536	0.3958	1.5259	17.3950	24.5972	1.3898	1.2524	176.4569	37.8500	38	0	0 
02257.662	-0.3533	0.1897	0.5449	2.5635	2.2583	28.5034	1.4557	1.3458	176.5942	37.8500	38	0	0 
02257.662	-0.3533	0.1897	0.5449	2.5635	2.2583	28.5034	1.5271	1.4337	176.7261	37.8100	38	0	0 
02257.662	-0.3533	0.1897	0.5449	2.5635	2.2583	28.5034	1.5930	1.5216	176.8579	37.8100	38	0	0 
02257.677	-0.3533	0.1897	0.5449	2.5635	2.2583	28.5034	1.6644	1.6150	176.9897	37.8700	37	0	0 
02257.677	-0.3533	0.1897	0.5449	2.5635	2.2583	28.5034	1.7303	1.7029	177.1271	37.8700	37	0	0 
02257.677	-0.3533	0.1897	0.5449	2.5635	2.2583	28.5034	1.7963	1.7908	177.2589	37.8400	36	0	0 
02257.718	-0.3533	0.1897	0.5449	2.5635	2.2583	28.5034	1.8677	1.8787	177.3907	37.8400	35	0	0 
02257.718	-0.3533	0.1897	0.5449	2.5635	2.2583	28.5034	1.9336	1.9666	177.5226	37.8100	35	0	0 
02257.718	-0.3770	0.2004	0.6062	3.3569	-7.2021	29.2358	2.0050	2.0050	177.6544	37.8100	35	0	0 
02257.733	-0.3770	0.2004	0.6062	3.3569	-7.2021	29.2358	2.0764	2.0380	177.7917	37.9200	34	0	0 
02257.762	-0.3770	0.2004	0.6062	3.3569	-7.2021	29.2358	2.1478	2.0764	177.9236	37.9200	34	0	0 
02257.762	-0.3770	0.2004	0.6062	3.3569	-7.2021	29.2358	2.2192	2.1094	178.0554	37.8000	33	0	0 
02257.783	-0.3770	0.2004	0.6062	3.3569	-7.2021	29.2358	2.2852	2.1478	178.1873	37.8000	34	0	0 
02257.783	-0.3770	0.2004	0.6062	3.3569	-7.2021	29.2358	2.3566	2.1808	178.3246	37.9000	35	0	0 
02257.825	-0.3770	0.2004	0.6062	3.3569	-7.2021	29.2358	2.4280	2.2192	178.4564	37.9000	35	0	0 
02257.825	-0.3770	0.2004	0.6062	3.3569	-7.2021	29.2358	2.4994	2.2522	178.5883	37.8900	35	0	0 
02257.825	-0.4834	0.1785	0.6230	3.5400	-7.2021	26.9165	2.5598	2.3071	178.7091	37.8900	35	0	0 
02257.918	-0.4834	0.1785	0.6230	3.5400	-7.2021	26.9165	2.6257	2.3566	178.8245	37.8900	35	0	0 
02257.918	-0.4834	0.1785	0.6230	3.5400	-7.2021	26.9165	2.6862	2.4115	178.9453	37.8100	34	0	0 
02257.919	-0.4834	0.1785	0.6230	3.5400	-7.2021	26.9165	2.7521	2.4609	179.0662	37.8100	32	0	0 
02257.975	-0.4834	0.1785	0.6230	3.5400	-7.2021	26.9165	2.8125	2.5104	179.1815	37.8500	32	0	0 
02257.975	-0.4834	0.1785	0.6230	3.5400	-7.2021	26.9165	2.8784	2.5653	179.3024	37.8500	31	0	0 
02257.975	-0.4834	0.1785	0.6230	3.5400	-7.2021	26.9165	2.9443	2.6147	179.4177	37.8900	30	0	0 
02258.035	-0.4834	0.1785	0.6230	3.5400	-7.2021	26.9165	3.0048	2.6642	179.5331	37.8900	30	0	0 
02258.035	-0.4236	0.1272	0.4912	3.2959	0.6714	23.2544	3.0652	2.7631	179.6375	37.8700	28	0	0 
02258.035	-0.4236	0.1272	0.4912	3.2959	0.6714	23.2544	3.1201	2.8619	179.7363	37.8700	27	0	0 
02258.058	-0.4236	0.1272	0.4912	3.2959	0.6714	23.2544	3.1750	2.9608	179.8407	37.8300	27	0	0 
02258.058	-0.4236	0.1272	0.4912	3.2959	0.6714	23.2544	3.2355	3.0597	179.9396	37.8300	26	0	0 
02258.058	-0.4236	0.1272	0.4912	3.2959	0.6714	23.2544	3.2959	3.1586	-179.9561	37.8200	25	0	0 
02258.087	-0.4236	0.1272	0.4912	3.2959	0.6714	23.2544	3.3508	3.2574	-179.8517	37.8200	25	0	0 
02258.087	-0.4236	0.1272	0.4912	3.2959	0.6714	23.2544	3.4113	3.3563	-179.7528	37.9400	23	0	0 
02258.087	-0.4236	0.1272	0.4912	3.2959	0.6714	23.2544	3.4662	3.4497	-179.6539	37.9400	21	0	0 
02258.132	-0.5544	0.1731	0.5774	2.9907	5.0659	21.3013	3.5321	3.5760	-179.5660	37.8400	20	0	0 
02258.132	-0.5544	0.1731	0.5774	2.9907	5.0659	21.3013	3.5925	3.7024	-179.4781	37.8400	18	0	0 
02258.132	-0.5544	0.1731	0.5774	2.9907	5.0659	21.3013	3.6530	3.8287	-179.3903	37.8400	16	0	0 
02258.182	-0.5544	0.1731	0.5774	2.9907	5.0659	21.3013	3.7189	3.9496	-179.2969	37.8500	15	0	0 
02258.182	-0.5544	0.1731	0.5774	2.9907	5.0659	21.3013	3.7793	4.0759	-179.2090	37.8500	15	0	0 
02258.182	-0.5544	0.1731	0.5774	2.9907	5.0659	21.3013	3.8397	4.2023	-179.1211	37.9100	15	0	0 
02258.211	-0.5544	0.1731	0.5774	2.9907	5.0659	21.3013	3.9056	4.3231	-179.0332	37.9100	15	0	0 
02258.211	-0.5544	0.1731	0.5774	2.9907	5.0659	21.3013	3.9661	4.4440	-178.9453	37.8200	15	0	0 
02258.265	-0.5479	0.1545	0.7170	1.7700	-0.7324	21.4844	4.0100	4.5209	-178.8574	37.8200	14	0	0 
02258.265	-0.5479	0.1545	0.7170	1.7700	-0.7324	21.4844	4.0594	4.5978	-178.7640	37.9000	13	0	0 
02258.265	-0.5479	0.1545	0.7170	1.7700	-0.7324	21.4844	4.1034	4.6747	-178.6707	37.9000	12	0	0 
02258.273	-0.5479	0.1545	0.7170	1.7700	-0.7324	21.4844	4.1473	4.7516	-178.5828	37.8500	11	0	0 
02258.273	-0.5479	0.1545	0.7170	1.7700	-0.7324	21.4844	4.1913	4.8285	-178.4894	37.8500	10	0	0 
02258.273	-0.5479	0.1545	0.7170	1.7700	-0.7324	21.4844	4.2352	4.9054	-178.3960	37.8500	10	0	0 
02258.295	-0.5479	0.1545	0.7170	1.7700	-0.7324	21.4844	4.2792	4.9823	-178.3081	37.8500	10	0	0 
02258.295	-0.5479	0.1545	0.7170	1.7700	-0.7324	21.4844	4.3231	5.0537	-178.2202	37.8500	10	0	0 
02258.295	-0.5288	0.2351	0.8350	-0.6714	-13.5498	22.0337	4.3671	5.0482	-178.1323	37.8500	10	0	0 
02258.322	-0.5288	0.2351	0.8350	-0.6714	-13.5498	22.0337	4.4110	5.0427	-178.0444	37.8500	9	0	0 
02258.322	-0.5288	0.2351	0.8350	-0.6714	-13.5498	22.0337	4.4550	5.0372	-177.9565	37.8300	9	0	0 
02258.322	-0.5288	0.2351	0.8350	-0.6714	-13.5498	22.0337	4.4934	5.0317	-177.8741	37.8300	9	0	0 
02258.337	-0.5288	0.2351	0.8350	-0.6714	-13.5498	22.0337	4.5374	5.0262	-177.7863	37.8700	8	0	0 
02258.337	-0.5288	0.2351	0.8350	-0.6714	-13.5498	22.0337	4.5813	5.0208	-177.7039	37.8700	7	0	0 
02258.337	-0.5288	0.2351	0.8350	-0.6714	-13.5498	22.0337	4.6198	5.0153	-177.6160	37.8500	7	0	0 
02258.354	-0.5288	0.2351	0.8350	-0.6714	-13.5498	22.0337	4.6637	5.0098	-177.5336	37.8500	7	0	0 
02258.354	-0.4824	0.2168	1.0735	-3.6011	-26.1841	21.2402	4.6802	4.9219	-177.4512	37.7900	7	0	0 
02258.354	-0.4824	0.2168	1.0735	-3.6011	-26.1841	21.2402	4.6912	4.8285	-177.3743	37.7900	8	0	0 
02258.380	-0.4824	0.2168	1.0735	-3.6011	-26.1841	21.2402	4.7076	4.7406	-177.2974	37.8400	8	0	0 
02258.380	-0.4824	0.2168	1.0735	-3.6011	-26.1841	21.2402	4.7186	4.6527	-177.2150	37.8400	7	0	0 
02258.380	-0.4824	0.2168	1.0735	-3.6011	-26.1841	21.2402	4.7296	4.5593	-177.1381	37.8900	6	0	0 
02258.401	-0.4824	0.2168	1.0735	-3.6011	-26.1841	21.2402	4.7461	4.4714	-177.0612	37.8900	6	0	0 
02258.401	-0.4824	0.2168	1.0735	-3.6011	-26.1841	21.2402	4.7571	4.3835	-176.9843	37.8900	5	0	0 
02258.480	-0.4824	0.2168	1.0735	-3.6011	-26.1841	21.2402	4.7681	4.2957	-176.9073	37.8900	5	0	0 
02258.480	-0.4448	0.2153	1.1345	-6.6528	-31.6772	18.0664	4.7626	4.1748	-176.8469	37.8600	4	0	0 
02258.480	-0.4448	0.2153	1.1345	-6.6528	-31.6772	18.0664	4.7571	4.0485	-176.7920	37.8600	4	0	0 
02258.537	-0.4448	0.2153	1.1345	-6.6528	-31.6772	18.0664	4.7516	3.9276	-176.7316	37.8600	4	0	0 
02258.537	-0.4448	0.2153	1.1345	-6.6528	-31.6772	18.0664	4.7461	3.8068	-176.6711	37.7900	3	0	0 
02258.537	-0.4448	0.2153	1.1345	-6.6528	-31.6772	18.0664	4.7351	3.6859	-176.6107	37.7900	3	0	0 
02258.591	-0.4448	0.2153	1.1345	-6.6528	-31.6772	18.0664	4.7296	3.5651	-176.5558	37.8700	3	0	0 
02258.591	-0.4448	0.2153	1.1345	-6.6528	-31.6772	18.0664	4.7241	3.4442	-176.4954	37.8700	3	0	0 
02258.591	-0.4448	0.2153	1.1345	-6.6528	-31.6772	18.0664	4.7131	3.3289	-176.4404	37.8200	3	0	0 
02258.605	-0.4026	0.1814	1.1641	-8.0566	-28.0151	13.3667	4.6967	3.2190	-176.4020	37.8200	4	0	0 
02258.605	-0.4026	0.1814	1.1641	-8.0566	-28.0151	13.3667	4.6747	3.1146	-176.3635	37.9100	4	0	0 
02258.606	-0.4026	0.1814	1.1641	-8.0566	-28.0151	13.3667	4.6527	3.0103	-176.3306	37.9100	4	0	0 
02258.628	-0.4026	0.1814	1.1641	-8.0566	-28.0151	13.3667	4.6307	2.9059	-176.2921	37.8900	4	0	0 
02258.628	-0.4026	0.1814	1.1641	-8.0566	-28.0151	13.3667	4.6088	2.8015	-176.2537	37.8900	3	0	0 
02258.628	-0.4026	0.1814	1.1641	-8.0566	-28.0151	13.3667	4.5868	2.6971	-176.2207	37.9300	2	0	0 
02258.642	-0.4026	0.1814	1.1641	-8.0566	-28.0151	13.3667	4.5648	2.5928	-176.1823	37.9300	2	0	0 
02258.642	-0.4026	0.1814	1.1641	-8.0566	-28.0151	13.3667	4.5483	2.4939	-176.1493	37.8400	2	0	0 
02258.642	-0.4050	0.1567	1.1367	-7.3853	-19.2871	8.8501	4.5264	2.4390	-176.1273	37.8400	1	0	0 
02258.673	-0.4050	0.1567	1.1367	-7.3853	-19.2871	8.8501	4.5044	2.3785	-176.1108	37.8400	1	0	0 
02258.673	-0.4050	0.1567	1.1367	-7.3853	-19.2871	8.8501	4.4824	2.3236	-176.0944	37.8400	1	0	0 
02258.673	-0.4050	0.1567	1.1367	-7.3853	-19.2871	8.8501	4.4604	2.2687	-176.0779	37.8400	2	0	0 
02258.675	-0.4050	0.1567	1.1367	-7.3853	-19.2871	8.8501	4.4385	2.2137	-176.0614	37.9000	2	0	0 
02258.675	-0.4050	0.1567	1.1367	-7.3853	-19.2871	8.8501	4.4165	2.1588	-176.0449	37.9000	2	0	0 
02258.675	-0.4050	0.1567	1.1367	-7.3853	-19.2871	8.8501	4.3945	2.1039	-176.0229	37.8500	1	0	0 
02258.702	-0.4050	0.1567	1.1367	-7.3853	-19.2871	8.8501	4.3726	2.0490	-176.0065	37.8500	1	0	0 
02258.702	-0.4146	0.1438	1.0879	-5.7373	-9.8877	5.6152	4.3616	2.0490	-176.0010	37.8100	1	0	0 
02258.749	-0.4146	0.1438	1.0879	-5.7373	-9.8877	5.6152	4.3835	2.0215	-176.2317	37.8100	0	0	0 
02258.749	-0.4146	0.1438	1.0879	-5.7373	-9.8877	5.6152	4.4110	1.9995	-176.4569	37.9100	0	0	0 
02258.749	-0.4146	0.1438	1.0879	-5.7373	-9.8877	5.6152	4.3945	1.9940	-176.4514	37.9100	1	0	0 
02258.771	-0.4146	0.1438	1.0879	-5.7373	-9.8877	5.6152	4.3835	1.9940	-176.4459	37.8600	2	0	0 
02258.771	-0.4146	0.1438	1.0879	-5.7373	-9.8877	5.6152	4.3671	1.9885	-176.4404	37.8600	2	0	0 
02258.771	-0.4146	0.1438	1.0879	-5.7373	-9.8877	5.6152	4.3506	1.9885	-176.4294	37.8900	2	0	0 
02258.791	-0.4146	0.1438	1.0879	-5.7373	-9.8877	5.6152	4.3396	1.9830	-176.4240	37.8900	2	0	0 
02258.791	-0.4343	0.1387	1.0393	-3.6621	-2.1973	3.7231	4.3341	2.0270	-176.4240	37.8400	1	0	0 
02258.791	-0.4343	0.1387	1.0393	-3.6621	-2.1973	3.7231	4.3286	2.0709	-176.4294	37.8400	1	0	0 
02258.805	-0.4343	0.1387	1.0393	-3.6621	-2.1973	3.7231	4.3286	2.1094	-176.4294	37.8400	1	0	0 
02258.805	-0.4343	0.1387	1.0393	-3.6621	-2.1973	3.7231	4.3671	2.1259	-176.6602	37.8400	0	0	0 
02258.805	-0.4343	0.1387	1.0393	-3.6621	-2.1973	3.7231	4.4055	2.1478	-176.8909	37.8400	0	0	0 
02258.809	-0.4343	0.1387	1.0393	-3.6621	-2.1973	3.7231	4.4440	2.1643	-177.1216	37.8900	0	0	0 
02258.809	-0.4343	0.1387	1.0393	-3.6621	-2.1973	3.7231	4.4824	2.1808	-177.3523	37.8900	0	0	0 
02258.809	-0.4343	0.1387	1.0393	-3.6621	-2.1973	3.7231	4.5209	2.1973	-177.5830	37.8900	0	0	0 
02258.819	-0.4519	0.1389	1.0032	-1.7700	2.5635	2.6245	4.5758	2.2467	-177.8137	37.8900	0	0	0 
02258.819	-0.4519	0.1389	1.0032	-1.7700	2.5635	2.6245	4.6252	2.2906	-178.0444	37.8800	0	0	0 
02258.819	-0.4519	0.1389	1.0032	-1.7700	2.5635	2.6245	4.6747	2.3346	-178.2751	37.8800	0	0	0 
02258.851	-0.4519	0.1389	1.0032	-1.7700	2.5635	2.6245	4.7296	2.3785	-178.5059	37.8500	0	0	0 
02258.851	-0.4519	0.1389	1.0032	-1.7700	2.5635	2.6245	4.7791	2.4280	-178.7366	37.8500	0	0	0 
02258.851	-0.4519	0.1389	1.0032	-1.7700	2.5635	2.6245	4.8285	2.4719	-178.9673	37.8900	0	0	0 
02258.853	-0.4519	0.1389	1.0032	-1.7700	2.5635	2.6245	4.8779	2.5159	-179.1980	37.8900	0	0	0 
02258.853	-0.4519	0.1389	1.0032	-1.7700	2.5635	2.6245	4.9274	2.5653	-179.4232	37.8300	0	0	0 
02258.853	-0.4150	0.1245	0.9824	-0.3662	4.5166	1.9531	4.9384	2.6367	-179.4232	37.8300	1	0	0 
02258.855	-0.4150	0.1245	0.9824	-0.3662	4.5166	1.9531	4.9438	2.7136	-179.4177	37.8500	1	0	0 
02258.855	-0.4150	0.1245	0.9824	-0.3662	4.5166	1.9531	4.9548	2.7905	-179.4177	37.8500	2	0	0 
02258.868	-0.4150	0.1245	0.9824	-0.3662	4.5166	1.9531	4.9603	2.8619	-179.4122	37.8500	3	0	0 
02258.868	-0.4150	0.1245	0.9824	-0.3662	4.5166	1.9531	4.9713	2.9388	-179.4122	37.9000	3	0	0 
02258.868	-0.4150	0.1245	0.9824	-0.3662	4.5166	1.9531	4.9768	3.0103	-179.4067	37.9000	3	0	0 
02258.878	-0.4150	0.1245	0.9824	-0.3662	4.5166	1.9531	4.9878	3.0872	-179.4067	37.8500	2	0	0 
02258.878	-0.4150	0.1245	0.9824	-0.3662	4.5166	1.9531	4.9933	3.1586	-179.4012	37.8500	2	0	0 
02258.878	-0.3530	0.1042	0.9756	0.3662	4.3945	1.3428	5.0043	3.2245	-179.4012	37.8500	2	0	0 
02258.902	-0.3530	0.1042	0.9756	0.3662	4.3945	1.3428	5.0098	3.2849	-179.4012	37.8500	2	0	0 
02258.902	-0.3530	0.1042	0.9756	0.3662	4.3945	1.3428	5.0208	3.3508	-179.4012	37.7900	2	0	0 
02258.902	-0.3530	0.1042	0.9756	0.3662	4.3945	1.3428	5.0262	3.4167	-179.4012	37.7900	1	0	0 
02258.907	-0.3530	0.1042	0.9756	0.3662	4.3945	1.3428	5.0372	3.4772	-179.4012	37.8500	3	0	0 
02258.907	-0.3530	0.1042	0.9756	0.3662	4.3945	1.3428	5.0427	3.5431	-179.4012	37.8500	4	0	0 
02258.907	-0.3530	0.1042	0.9756	0.3662	4.3945	1.3428	5.0537	3.6035	-179.4012	37.7500	3	0	0 
02258.911	-0.3530	0.1042	0.9756	0.3662	4.3945	1.3428	5.0592	3.6694	-179.4012	37.7500	3	0	0 
02258.911	-0.2422	0.0686	0.9775	0.7324	3.1738	0.8545	5.0647	3.7079	-179.4012	37.8400	3	0	0 
02258.911	-0.2422	0.0686	0.9775	0.7324	3.1738	0.8545	5.0647	3.7463	-179.4067	37.8400	3	0	0 
02258.921	-0.2422	0.0686	0.9775	0.7324	3.1738	0.8545	5.0702	3.7848	-179.4067	37.8200	3	0	0 
02258.921	-0.2422	0.0686	0.9775	0.7324	3.1738	0.8545	5.0702	3.8232	-179.4122	37.8200	3	0	0 
02258.921	-0.2422	0.0686	0.9775	0.7324	3.1738	0.8545	5.0757	3.8617	-179.4122	37.8200	3	0	0 
02258.925	-0.2422	0.0686	0.9775	0.7324	3.1738	0.8545	5.0757	3.9001	-179.4122	37.8700	3	0	0 
02258.925	-0.2422	0.0686	0.9775	0.7324	3.1738	0.8545	5.0812	3.9386	-179.4177	37.8700	3	0	0 
02258.925	-0.2422	0.0686	0.9775	0.7324	3.1738	0.8545	5.0867	3.9771	-179.4177	37.8700	2	0	0 
02258.946	-0.1272	0.0315	0.9841	0.7324	1.7090	0.4883	5.0812	3.9935	-179.4232	37.8700	3	0	0 
02258.946	-0.1272	0.0315	0.9841	0.7324	1.7090	0.4883	5.0757	4.0045	-179.4287	37.8500	3	0	0 
02258.946	-0.1272	0.0315	0.9841	0.7324	1.7090	0.4883	5.0702	4.0155	-179.4342	37.8500	3	0	0 
02258.995	-0.1272	0.0315	0.9841	0.7324	1.7090	0.4883	5.0647	4.0265	-179.4397	37.8500	4	0	0 
02258.995	-0.1272	0.0315	0.9841	0.7324	1.7090	0.4883	4.1199	4.3396	158.4888	37.8500	2	0	0 
02258.995	-0.0212	-0.0037	0.9980	0.0000	0.0000	0.0000	4.1089	4.3341	158.2910	37.8100	0	0	0 
02259.004	-0.0212	-0.0037	0.9980	0.0000	0.0000	0.0000	4.0979	4.3341	158.0878	37.8500	0	0	0 
02259.004	-0.0212	-0.0037	0.9980	0.0000	0.0000	0.0000	4.0869	4.3286	157.8900	37.8500	0	0	0 
02259.016	-0.0212	-0.0037	0.9980	0.0000	0.0000	0.0000	4.0814	4.3451	157.5494	37.7900	-1	0	0 
02259.016	-0.0212	-0.0037	0.9980	0.0000	0.0000	0.0000	4.0759	4.3561	157.2144	37.7900	-1	0	0 
02259.016	-0.0193	-0.0044	0.9980	0.0000	0.0000	0.0000	4.0704	4.3726	156.8738	37.8900	-1	0	0 
02259.050	-0.0193	-0.0044	0.9980	0.0000	0.0000	0.0000	4.0649	4.3835	156.5332	37.8900	-1	0	0 
02259.050	-0.0193	-0.0044	0.9980	0.0000	0.0000	0.0000	4.0594	4.4000	156.1981	37.8200	-1	0	0 
02259.050	-0.0193	-0.0044	0.9980	0.0000	0.0000	0.0000	4.0540	4.4110	155.8575	37.8200	-1	0	0 
02259.080	-0.0193	-0.0044	0.9980	0.0000	0.0000	0.0000	4.0485	4.4275	155.5170	37.8600	-1	0	0 
02259.080	-0.0193	-0.0044	0.9980	0.0000	0.0000	0.0000	4.0430	4.4385	155.1819	37.8600	-1	0	0 
02259.080	-0.0193	-0.0044	0.9980	0.0000	0.0000	0.0000	4.0375	4.4495	154.8413	37.8200	-1	0	0 
02259.082	-0.0193	-0.0044	0.9980	0.0000	0.0000	0.0000	4.0320	4.4659	154.5062	37.8200	-1	0	0 
02259.082	-0.0178	-0.0049	0.9978	0.0000	0.0000	0.0000	4.0210	4.4769	154.1656	37.8200	-1	0	0 
02259.082	-0.0178	-0.0049	0.9978	0.0000	0.0000	0.0000	4.0155	4.4934	153.8306	37.8600	-1	0	0 
02259.101	-0.0178	-0.0049	0.9978	0.0000	0.0000	0.0000	4.0100	4.5044	153.4955	37.8600	-1	0	0 
02259.101	-0.0178	-0.0049	0.9978	0.0000	0.0000	0.0000	4.0045	4.5209	153.1549	37.7900	-1	0	0 
02259.101	-0.0178	-0.0049	0.9978	0.0000	0.0000	0.0000	3.9935	4.5154	152.9681	37.7900	0	0	0 
02259.124	-0.0178	-0.0049	0.9978	0.0000	0.0000	0.0000	3.9825	4.5099	152.7869	37.7900	0	0	0 
02259.124	-0.0178	-0.0049	0.9978	0.0000	0.0000	0.0000	3.9716	4.5044	152.6001	37.7900	0	0	0 
02259.124	-0.0178	-0.0049	0.9978	0.0000	0.0000	0.0000	3.9661	4.5209	152.2650	37.7800	-2	0	0 
02259.128	-0.0171	-0.0051	0.9978	0.0000	0.0000	0.0000	3.9606	4.5319	151.9299	37.7800	-1	0	0 
02259.128	-0.0171	-0.0051	0.9978	0.0000	0.0000	0.0000	3.9496	4.5428	151.5894	37.9300	-1	0	0 
02259.128	-0.0171	-0.0051	0.9978	0.0000	0.0000	0.0000	3.9441	4.5593	151.2543	37.9300	-1	0	0 
02259.133	-0.0171	-0.0051	0.9978	0.0000	0.0000	0.0000	3.9331	4.5538	151.0730	37.8500	0	0	0 
02259.133	-0.0171	-0.0051	0.9978	0.0000	0.0000	0.0000	3.9221	4.5483	150.8917	37.8500	0	0	0 
02259.181	-0.0171	-0.0051	0.9978	0.0000	0.0000	0.0000	3.9111	4.5428	150.7159	37.8600	0	0	0 
02259.181	-0.0171	-0.0051	0.9978	0.0000	0.0000	0.0000	3.9056	4.5374	150.5347	37.8600	0	0	0 
02259.181	-0.0171	-0.0051	0.9978	0.0000	0.0000	0.0000	3.8947	4.5538	150.1996	37.7800	-1	0	0 
02259.206	-0.0168	-0.0051	0.9980	0.0000	0.0000	0.0000	3.8892	4.5648	149.8645	37.7800	-1	0	0 
02259.206	-0.0168	-0.0051	0.9980	0.0000	0.0000	0.0000	3.8837	4.5758	149.5294	37.7800	-1	0	0 
02259.206	-0.0168	-0.0051	0.9980	0.0000	0.0000	0.0000	3.8727	4.5923	149.1943	37.8600	-1	0	0 
02259.216	-0.0168	-0.0051	0.9980	0.0000	0.0000	0.0000	3.8672	4.6033	148.8593	37.8600	-2	0	0 
02259.216	-0.0168	-0.0051	0.9980	0.0000	0.0000	0.0000	3.8562	4.6143	148.5297	37.8000	-2	0	0 
02259.216	-0.0168	-0.0051	0.9980	0.0000	0.0000	0.0000	3.8507	4.6252	148.1946	37.8000	-2	0	0 
02259.263	-0.0168	-0.0051	0.9980	0.0000	0.0000	0.0000	3.8397	4.6417	147.8595	37.8800	-2	0	0 
02259.263	-0.0168	-0.0051	0.9980	0.0000	0.0000	0.0000	3.8342	4.6527	147.5299	37.8800	-2	0	0 
02259.263	-0.0171	-0.0051	0.9980	0.0000	0.0000	0.0000	3.8287	4.6637	147.1948	37.8800	-2	0	0 
02259.265	-0.0171	-0.0051	0.9980	0.0000	0.0000	0.0000	3.8177	4.6747	146.8652	37.8800	-1	0	0 
02259.265	-0.0171	-0.0051	0.9980	0.0000	0.0000	0.0000	3.8123	4.6912	146.5302	37.8600	-1	0	0 
02259.265	-0.0171	-0.0051	0.9980	0.0000	0.0000	0.0000	3.8013	4.7021	146.2006	37.8600	-1	0	0 
02259.274	-0.0171	-0.0051	0.9980	0.0000	0.0000	0.0000	3.7958	4.7131	145.8655	37.8600	-2	0	0 
02259.274	-0.0171	-0.0051	0.9980	0.0000	0.0000	0.0000	3.7848	4.7241	145.5359	37.8600	-2	0	0 
02259.274	-0.0171	-0.0051	0.9980	0.0000	0.0000	0.0000	3.7793	4.7351	145.2063	37.8300	-2	0	0 
02259.286	-0.0171	-0.0051	0.9980	0.0000	0.0000	0.0000	3.7683	4.7516	144.8712	37.8300	-1	0	0 
02259.286	-0.0173	-0.0051	0.9985	0.0000	0.0000	0.0000	3.7573	4.7406	144.7119	37.8500	0	0	0 
02259.286	-0.0173	-0.0051	0.9985	0.0000	0.0000	0.0000	3.7518	4.7351	144.5471	37.8500	0	0	0 
02259.290	-0.0173	-0.0051	0.9985	0.0000	0.0000	0.0000	3.7408	4.7296	144.3823	37.8500	0	0	0 
02259.290	-0.0173	-0.0051	0.9985	0.0000	0.0000	0.0000	3.7299	4.7241	144.2175	37.8000	0	0	0 
02259.290	-0.0173	-0.0051	0.9985	0.0000	0.0000	0.0000	3.7189	4.7186	144.0527	37.8000	0	0	0 
02259.297	-0.0173	-0.0051	0.9985	0.0000	0.0000	0.0000	3.7134	4.7131	143.8934	37.8600	0	0	0 
02259.297	-0.0173	-0.0051	0.9985	0.0000	0.0000	0.0000	3.7024	4.7076	143.7286	37.8600	0	0	0 
02259.301	-0.0173	-0.0051	0.9985	0.0000	0.0000	0.0000	3.6914	4.7021	143.5693	37.8800	0	0	0 
02259.301	-0.0176	-0.0051	0.9985	0.0000	0.0000	0.0000	3.6859	4.6967	143.4100	37.8800	0	0	0 
02259.301	-0.0176	-0.0051	0.9985	0.0000	0.0000	0.0000	3.6749	4.6912	143.2452	37.8200	0	0	0 
02259.307	-0.0176	-0.0051	0.9985	0.0000	0.0000	0.0000	3.6639	4.6857	143.0859	37.8200	0	0	0 
02259.307	-0.0176	-0.0051	0.9985	0.0000	0.0000	0.0000	3.6584	4.6802	142.9266	37.8000	0	0	0 
02259.307	-0.0176	-0.0051	0.9985	0.0000	0.0000	0.0000	3.6475	4.6692	142.7673	37.8000	0	0	0 
02259.322	-0.0176	-0.0051	0.9985	0.0000	0.0000	0.0000	3.6365	4.6637	142.6080	37.8200	0	0	0 
02259.322	-0.0176	-0.0051	0.9985	0.0000	0.0000	0.0000	3.6310	4.6582	142.4487	37.8200	0	0	0 
02259.322	-0.0176	-0.0051	0.9985	0.0000	0.0000	0.0000	3.6200	4.6527	142.2894	37.8600	0	0	0 
02259.352	-0.0178	-0.0049	0.9988	0.0000	0.0000	0.0000	3.6090	4.6472	142.1356	37.8600	0	0	0 
02259.352	-0.0178	-0.0049	0.9988	0.0000	0.0000	0.0000	3.6090	4.6307	142.2400	37.9300	1	0	0 
02259.352	-0.0178	-0.0049	0.9988	0.0000	0.0000	0.0000	3.6035	4.6088	142.3444	37.9300	2	0	0 
02259.387	-0.0178	-0.0049	0.9988	0.0000	0.0000	0.0000	3.5980	4.5868	142.4487	37.9300	3	0	0 
02259.387	-0.0178	-0.0049	0.9988	0.0000	0.0000	0.0000	3.5925	4.5703	142.5531	37.8100	4	0	0 
02259.387	-0.0178	-0.0049	0.9988	0.0000	0.0000	0.0000	3.5870	4.5483	142.6575	37.8100	4	0	0 
02259.389	-0.0178	-0.0049	0.9988	0.0000	0.0000	0.0000	3.5870	4.5319	142.7563	37.8500	3	0	0 
02259.389	-0.0178	-0.0049	0.9988	0.0000	0.0000	0.0000	3.5815	4.5099	142.8607	37.8500	2	0	0 
02259.389	-0.0176	-0.0049	0.9988	0.0000	0.0000	0.0000	3.5760	4.4934	142.9651	37.8500	1	0	0 
02259.398	-0.0176	-0.0049	0.9988	0.0000	0.0000	0.0000	3.5706	4.4714	143.0695	37.8500	1	0	0 
02259.398	-0.0176	-0.0049	0.9988	0.0000	0.0000	0.0000	3.5651	4.4550	143.1683	37.8400	1	0	0 
02259.398	-0.0176	-0.0049	0.9988	0.0000	0.0000	0.0000	3.5651	4.4330	143.2727	37.8400	1	0	0 
02259.405	-0.0176	-0.0049	0.9988	0.0000	0.0000	0.0000	3.5596	4.4165	143.3716	37.8600	2	0	0 
02259.405	-0.0176	-0.0049	0.9988	0.0000	0.0000	0.0000	3.5541	4.3945	143.4760	37.8600	1	0	0 
02259.405	-0.0176	-0.0049	0.9988	0.0000	0.0000	0.0000	3.5486	4.3781	143.5748	37.8400	1	0	0 
02259.412	-0.0176	-0.0049	0.9988	0.0000	0.0000	0.0000	3.5431	4.3561	143.6792	37.8400	2	0	0 
02259.412	-0.0173	-0.0049	0.9988	0.0000	0.0000	0.0000	3.5376	4.3396	143.7781	37.8100	3	0	0 
02259.418	-0.0173	-0.0049	0.9988	0.0000	0.0000	0.0000	3.5376	4.3231	143.8770	37.8100	3	0	0 
02259.418	-0.0173	-0.0049	0.9988	0.0000	0.0000	0.0000	3.5321	4.3011	143.9758	37.8100	2	0	0 
02259.418	-0.0173	-0.0049	0.9988	0.0000	0.0000	0.0000	3.5266	4.2847	144.0747	37.8700	2	0	0 
02259.443	-0.0173	-0.0049	0.9988	0.0000	0.0000	0.0000	3.5211	4.2627	144.1791	37.8700	2	0	0 
02259.443	-0.0173	-0.0049	0.9988	0.0000	0.0000	0.0000	3.5156	4.2462	144.2780	37.7900	1	0	0 
02259.443	-0.0173	-0.0049	0.9988	0.0000	0.0000	0.0000	3.5101	4.2407	144.1132	37.7900	0	0	0 
02259.454	-0.0173	-0.0049	0.9988	0.0000	0.0000	0.0000	3.4991	4.2352	143.9484	37.8400	0	0	0 
02259.454	-0.0173	-0.0049	0.9985	0.0000	0.0000	0.0000	3.4937	4.2297	143.7891	37.8400	0	0	0 
02259.454	-0.0173	-0.0049	0.9985	0.0000	0.0000	0.0000	3.4827	4.2242	143.6243	37.8300	0	0	0 
02259.496	-0.0173	-0.0049	0.9985	0.0000	0.0000	0.0000	3.4772	4.2078	143.7286	37.8300	1	0	0 
02259.496	-0.0173	-0.0049	0.9985	0.0000	0.0000	0.0000	3.4772	4.1913	143.8275	37.8500	1	0	0 
02259.496	-0.0173	-0.0049	0.9985	0.0000	0.0000	0.0000	3.4717	4.1693	143.9264	37.8500	1	0	0 
02259.525	-0.0173	-0.0049	0.9985	0.0000	0.0000	0.0000	3.4662	4.1528	144.0253	37.7900	1	0	0 
02259.525	-0.0173	-0.0049	0.9985	0.0000	0.0000	0.0000	3.4607	4.1364	144.1296	37.7900	1	0	0 
02259.525	-0.0173	-0.0049	0.9985	0.0000	0.0000	0.0000	3.4552	4.1144	144.2285	37.8000	1	0	0 
02259.556	-0.0173	-0.0049	0.9985	0.0000	0.0000	0.0000	3.4497	4.0979	144.3274	37.8000	1	0	0 
02259.556	-0.0173	-0.0049	0.9985	0.0000	0.0000	0.0000	3.4442	4.0924	144.1626	37.8100	0	0	0 
02259.556	-0.0173	-0.0049	0.9985	0.0000	0.0000	0.0000	3.4332	4.0869	143.9978	37.8100	0	0	0 
02259.596	-0.0173	-0.0049	0.9985	0.0000	0.0000	0.0000	3.4332	4.0704	144.0967	37.8100	1	0	0 
02259.596	-0.0173	-0.0049	0.9985	0.0000	0.0000	0.0000	3.4277	4.0540	144.2010	37.8800	1	0	0 
02259.596	-0.0173	-0.0049	0.9985	0.0000	0.0000	0.0000	3.4222	4.0375	144.2999	37.8800	1	0	0 
02259.671	-0.0173	-0.0049	0.9985	0.0000	0.0000	0.0000	3.4167	4.0155	144.3988	37.7900	1	0	0 
02259.671	-0.0173	-0.0049	0.9985	0.0000	0.0000	0.0000	3.4113	3.9990	144.4977	37.7900	1	0	0 
02259.671	-0.0176	-0.0049	0.9985	0.0000	0.0000	0.0000	3.4058	3.9825	144.5911	37.9400	1	0	0 
02259.724	-0.0176	-0.0049	0.9985	0.0000	0.0000	0.0000	3.4003	3.9771	144.4318	37.9400	0	0	0 
02259.724	-0.0176	-0.0049	0.9985	0.0000	0.0000	0.0000	3.3948	3.9716	144.2670	37.8200	0	0	0 
02259.822	-0.0176	-0.0049	0.9985	0.0000	0.0000	0.0000	3.3838	3.9716	144.1022	37.8200	0	0	0 
02259.822	-0.0176	-0.0049	0.9985	0.0000	0.0000	0.0000	3.3783	3.9661	143.9429	37.7900	0	0	0 
02259.822	-0.0176	-0.0049	0.9985	0.0000	0.0000	0.0000	3.3728	3.9606	143.7781	37.7900	0	0	0 
02259.839	-0.0176	-0.0049	0.9985	0.0000	0.0000	0.0000	3.3618	3.9551	143.6188	37.8400	0	0	0 
02259.839	-0.0176	-0.0049	0.9985	0.0000	0.0000	0.0000	3.3563	3.9496	143.4540	37.8400	0	0	0 
02259.839	-0.0178	-0.0051	0.9985	0.0000	0.0000	0.0000	3.3508	3.9496	143.2947	37.8200	0	0	0 
02259.858	-0.0178	-0.0051	0.9985	0.0000	0.0000	0.0000	3.3398	3.9441	143.1354	37.8200	0	0	0 
02259.858	-0.0178	-0.0051	0.9985	0.0000	0.0000	0.0000	3.3344	3.9386	142.9761	37.7800	0	0	0 
02259.858	-0.0178	-0.0051	0.9985	0.0000	0.0000	0.0000	3.3289	3.9496	142.6465	37.7800	-1	0	0 
02259.897	-0.0178	-0.0051	0.9985	0.0000	0.0000	0.0000	3.3234	3.9606	142.3169	37.7800	-1	0	0 
02259.897	-0.0178	-0.0051	0.9985	0.0000	0.0000	0.0000	3.3179	3.9716	141.9873	37.8200	-2	0	0 
02259.897	-0.0178	-0.0051	0.9985	0.0000	0.0000	0.0000	3.3124	3.9825	141.6632	37.8200	-2	0	0 
02259.947	-0.0178	-0.0051	0.9985	0.0000	0.0000	0.0000	3.3069	3.9935	141.3336	37.8600	-2	0	0 
02259.947	-0.0181	-0.0051	0.9990	0.0000	0.0000	0.0000	3.3014	4.0045	141.0095	37.8600	-2	0	0 
02259.947	-0.0181	-0.0051	0.9990	0.0000	0.0000	0.0000	3.2904	4.0155	140.6799	37.9100	-2	0	0 
02260.022	-0.0181	-0.0051	0.9990	0.0000	0.0000	0.0000	3.2849	4.0265	140.3558	37.9100	-1	0	0 
02260.022	-0.0181	-0.0051	0.9990	0.0000	0.0000	0.0000	3.2794	4.0375	140.0262	37.8500	-1	0	0 
02260.022