Time	ax	ay	az	wx	wy	wz	AngleX	AngleY	AngleZ	T	hx	hy	hz 
02367.945	0.0557	-0.0154	0.9958	-0.0610	0.1831	0.0000	-0.3186	-5.3339	177.7368	37.8100	36	0	0 
02367.973	0.0557	-0.0154	0.9958	-0.0610	0.1831	0.0000	-0.3186	-5.3339	177.7368	37.8600	36	0	0 
02367.973	0.0557	-0.0154	0.9958	-0.0610	0.1831	0.0000	-0.3186	-5.3284	177.7368	37.8600	36	0	0 
02367.975	0.0557	-0.0154	0.9958	-0.0610	0.1831	0.0000	-0.3241	-5.3284	177.7368	37.8700	35	0	0 
02367.986	0.0559	-0.0144	0.9954	-0.0610	0.1831	0.0000	-0.3241	-5.3284	177.7368	37.8700	34	0	0 
02367.986	0.0559	-0.0144	0.9954	-0.0610	0.1831	0.0000	-0.3241	-5.3284	177.7368	37.8700	34	0	0 
02367.988	0.0559	-0.0144	0.9954	-0.0610	0.1831	0.0000	-0.3241	-5.3284	177.7368	37.8400	34	0	0 
02367.991	0.0559	-0.0144	0.9954	-0.0610	0.1831	0.0000	-0.3241	-5.3284	177.7368	37.8400	34	0	0 
02367.991	0.0559	-0.0144	0.9954	-0.0610	0.1831	0.0000	-0.3241	-5.3284	177.7368	37.9200	34	0	0 
02367.993	0.0559	-0.0144	0.9954	-0.0610	0.1831	0.0000	-0.3241	-5.3229	177.7368	37.9200	34	0	0 
02367.996	0.0559	-0.0144	0.9954	-0.0610	0.1831	0.0000	-0.3241	-5.3229	177.7368	37.8800	35	0	0 
02367.996	0.0559	-0.0144	0.9954	-0.0610	0.1831	0.0000	-0.3241	-5.3229	177.7368	37.8800	35	0	0 
02368.001	0.0544	-0.0151	0.9966	-0.0610	0.1831	0.0000	-0.3241	-5.3229	177.7368	37.8300	35	0	0 
02368.008	0.0544	-0.0151	0.9966	-0.0610	0.1831	0.0000	-0.3241	-5.3229	177.7368	37.8300	35	0	0 
02368.008	0.0544	-0.0151	0.9966	-0.0610	0.1831	0.0000	-0.3241	-5.3229	177.7368	37.8500	35	0	0 
02368.012	0.0544	-0.0151	0.9966	-0.0610	0.1831	0.0000	-0.3241	-5.3229	177.7368	37.8500	35	0	0 
02368.027	0.0544	-0.0151	0.9966	-0.0610	0.1831	0.0000	-0.3241	-5.3174	177.7368	37.9200	36	0	0 
02368.031	0.0544	-0.0151	0.9966	-0.0610	0.1831	0.0000	-0.3241	-5.3174	177.7368	37.9200	37	0	0 
02368.031	0.0544	-0.0151	0.9966	-0.0610	0.1831	0.0000	-0.3241	-5.3174	177.7368	37.8500	37	0	0 
02368.036	0.0544	-0.0151	0.9966	-0.0610	0.1831	0.0000	-0.3296	-5.3174	177.7368	37.8500	37	0	0 
02368.043	0.0544	-0.0168	0.9958	-0.0610	0.1831	0.0000	-0.3296	-5.3174	177.7368	37.8500	37	0	0 
02368.043	0.0544	-0.0168	0.9958	-0.0610	0.1831	0.0000	-0.3296	-5.3174	177.7368	37.8500	37	0	0 
02368.051	0.0544	-0.0168	0.9958	-0.0610	0.1831	0.0000	-0.3296	-5.3119	177.7368	37.8500	38	0	0 
02368.059	0.0544	-0.0168	0.9958	-0.0610	0.1831	0.0000	-0.3296	-5.3119	177.7368	37.9000	38	0	0 
02368.059	0.0544	-0.0168	0.9958	-0.0610	0.1831	0.0000	-0.3296	-5.3119	177.7368	37.9000	38	0	0 
02368.069	0.0544	-0.0168	0.9958	-0.0610	0.1831	0.0000	-0.3296	-5.3119	177.7368	37.9100	38	0	0 
02368.074	0.0544	-0.0168	0.9958	-0.0610	0.1831	0.0000	-0.3296	-5.3119	177.7368	37.9100	38	0	0 
02368.074	0.0544	-0.0168	0.9958	-0.0610	0.1831	0.0000	-0.3296	-5.3119	177.7368	37.8200	38	0	0 
02368.082	0.0532	-0.0164	0.9968	-0.0610	0.1221	0.0000	-0.3351	-5.3064	177.7368	37.8200	38	0	0 
02368.093	0.0532	-0.0164	0.9968	-0.0610	0.1221	0.0000	-0.3351	-5.3064	177.7368	37.8700	38	0	0 
02368.093	0.0532	-0.0164	0.9968	-0.0610	0.1221	0.0000	-0.3351	-5.3064	177.7368	37.8700	38	0	0 
02368.095	0.0532	-0.0164	0.9968	-0.0610	0.1221	0.0000	-0.3351	-5.3064	177.7368	37.7800	37	0	0 
02368.102	0.0532	-0.0164	0.9968	-0.0610	0.1221	0.0000	-0.3351	-5.3064	177.7368	37.7800	37	0	0 
02368.111	0.0532	-0.0164	0.9968	-0.0610	0.1221	0.0000	-0.3351	-5.3064	177.7368	37.8500	37	0	0 
02368.111	0.0532	-0.0164	0.9968	-0.0610	0.1221	0.0000	-0.3351	-5.3064	177.7368	37.8500	37	0	0 
02368.115	0.0532	-0.0164	0.9968	-0.0610	0.1221	0.0000	-0.3351	-5.3009	177.7368	37.8800	37	0	0 
02368.126	0.0547	-0.0154	0.9961	-0.0610	0.1221	0.0000	-0.3351	-5.3009	177.7368	37.8800	38	0	0 
02368.126	0.0547	-0.0154	0.9961	-0.0610	0.1221	0.0000	-0.3351	-5.3009	177.7368	37.8800	39	0	0 
02368.134	0.0547	-0.0154	0.9961	-0.0610	0.1221	0.0000	-0.3406	-5.3009	177.7368	37.8200	40	0	0 
02368.139	0.0547	-0.0154	0.9961	-0.0610	0.1221	0.0000	-0.3406	-5.3009	177.7368	37.8200	39	0	0 
02368.139	0.0547	-0.0154	0.9961	-0.0610	0.1221	0.0000	-0.3406	-5.3009	177.7368	37.8100	39	0	0 
02368.143	0.0547	-0.0154	0.9961	-0.0610	0.1221	0.0000	-0.3406	-5.3009	177.7368	37.8100	38	0	0 
02368.172	0.0547	-0.0154	0.9961	-0.0610	0.1221	0.0000	-0.3406	-5.3009	177.7368	37.8200	38	0	0 
02368.172	0.0547	-0.0154	0.9961	-0.0610	0.1221	0.0000	-0.3406	-5.3009	177.7368	37.8200	37	0	0 
02368.178	0.0537	-0.0168	0.9966	-0.0610	0.0610	0.0000	-0.3406	-5.3009	177.7368	37.9000	36	0	0 
02368.178	0.0537	-0.0168	0.9966	-0.0610	0.0610	0.0000	-0.3406	-5.3009	177.7368	37.9000	36	0	0 
02368.178	0.0537	-0.0168	0.9966	-0.0610	0.0610	0.0000	-0.3406	-5.3009	177.7368	37.7800	37	0	0 
02368.178	0.0537	-0.0168	0.9966	-0.0610	0.0610	0.0000	-0.3406	-5.2954	177.7368	37.7800	37	0	0 
02368.183	0.0537	-0.0168	0.9966	-0.0610	0.0610	0.0000	-0.3406	-5.2954	177.7368	37.8400	36	0	0 
02368.190	0.0537	-0.0168	0.9966	-0.0610	0.0610	0.0000	-0.3461	-5.2954	177.7368	37.8400	37	0	0 
02368.190	0.0537	-0.0168	0.9966	-0.0610	0.0610	0.0000	-0.3461	-5.2954	177.7368	37.8600	37	0	0 
02368.198	0.0537	-0.0168	0.9966	-0.0610	0.0610	0.0000	-0.3461	-5.2954	177.7368	37.8600	37	0	0 
02368.204	0.0540	-0.0168	0.9966	-0.0610	0.0610	0.0000	-0.3461	-5.2954	177.7368	37.8400	37	0	0 
02368.204	0.0540	-0.0168	0.9966	-0.0610	0.0610	0.0000	-0.3461	-5.2954	177.7368	37.8400	36	0	0 
02368.208	0.0540	-0.0168	0.9966	-0.0610	0.0610	0.0000	-0.3461	-5.2954	177.7368	37.8400	36	0	0 
02368.221	0.0540	-0.0168	0.9966	-0.0610	0.0610	0.0000	-0.3461	-5.2954	177.7368	37.8300	36	0	0 
02368.221	0.0540	-0.0168	0.9966	-0.0610	0.0610	0.0000	-0.3461	-5.2954	177.7368	37.8300	36	0	0 
02368.227	0.0540	-0.0168	0.9966	-0.0610	0.0610	0.0000	-0.3461	-5.2954	177.7368	37.8900	36	0	0 
02368.233	0.0540	-0.0168	0.9966	-0.0610	0.0610	0.0000	-0.3516	-5.2954	177.7368	37.8900	37	0	0 
02368.233	0.0540	-0.0168	0.9966	-0.0610	0.0610	0.0000	-0.3516	-5.2954	177.7368	37.9400	37	0	0 
02368.240	0.0552	-0.0159	0.9963	-0.0610	0.0610	0.0000	-0.3516	-5.2954	177.7368	37.9400	37	0	0 
02368.249	0.0552	-0.0159	0.9963	-0.0610	0.0610	0.0000	-0.3516	-5.2954	177.7368	37.8800	38	0	0 
02368.249	0.0552	-0.0159	0.9963	-0.0610	0.0610	0.0000	-0.3516	-5.2954	177.7368	37.8800	38	0	0 
02368.253	0.0552	-0.0159	0.9963	-0.0610	0.0610	0.0000	-0.3516	-5.2954	177.7368	37.8500	37	0	0 
02368.266	0.0552	-0.0159	0.9963	-0.0610	0.0610	0.0000	-0.3516	-5.2954	177.7368	37.8500	36	0	0 
02368.266	0.0552	-0.0159	0.9963	-0.0610	0.0610	0.0000	-0.3516	-5.2954	177.7368	37.8100	36	0	0 
02368.269	0.0552	-0.0159	0.9963	-0.0610	0.0610	0.0000	-0.3516	-5.2954	177.7368	37.8100	36	0	0 
02368.282	0.0552	-0.0159	0.9963	-0.0610	0.0610	0.0000	-0.3516	-5.2954	177.7368	37.8900	37	0	0 
02368.286	0.0540	-0.0161	0.9973	0.0000	0.0000	0.0000	-0.3516	-5.2954	177.7368	37.8900	37	0	0 
02368.286	0.0540	-0.0161	0.9973	0.0000	0.0000	0.0000	-0.3516	-5.2954	177.7368	37.8900	38	0	0 
02368.293	0.0540	-0.0161	0.9973	0.0000	0.0000	0.0000	-0.3516	-5.2954	177.7368	37.8900	39	0	0 
02368.295	0.0540	-0.0161	0.9973	0.0000	0.0000	0.0000	-0.3516	-5.2954	177.7368	37.8900	38	0	0 
02368.295	0.0540	-0.0161	0.9973	0.0000	0.0000	0.0000	-0.3516	-5.2954	177.7368	37.8600	38	0	0 
02368.307	0.0540	-0.0161	0.9973	0.0000	0.0000	0.0000	-0.3516	-5.2954	177.7368	37.8600	38	0	0 
02368.313	0.0540	-0.0161	0.9973	0.0000	0.0000	0.0000	-0.3571	-5.2954	177.7368	37.8500	37	0	0 
02368.313	0.0540	-0.0161	0.9973	0.0000	0.0000	0.0000	-0.3571	-5.2954	177.7368	37.8500	38	0	0 
02368.320	0.0542	-0.0178	0.9973	0.0000	0.0000	0.0000	-0.3571	-5.2954	177.7368	37.8500	39	0	0 
02368.354	0.0542	-0.0178	0.9973	0.0000	0.0000	0.0000	-0.3571	-5.2954	177.7368	37.8500	38	0	0 
02368.354	0.0542	-0.0178	0.9973	0.0000	0.0000	0.0000	-0.3571	-5.2954	177.7368	37.9100	38	0	0 
02368.357	0.0542	-0.0178	0.9973	0.0000	0.0000	0.0000	-0.3571	-5.2954	177.7368	37.9100	38	0	0 
02368.357	0.0542	-0.0178	0.9973	0.0000	0.0000	0.0000	-0.3571	-5.2954	177.7368	37.8800	38	0	0 
02368.357	0.0542	-0.0178	0.9973	0.0000	0.0000	0.0000	-0.3571	-5.2954	177.7368	37.8800	37	0	0 
02368.357	0.0542	-0.0178	0.9973	0.0000	0.0000	0.0000	-0.3571	-5.2954	177.7368	37.9000	37	0	0 
02368.362	0.0542	-0.0178	0.9973	0.0000	0.0000	0.0000	-0.3571	-5.2954	177.7368	37.9000	36	0	0 
02368.364	0.0559	-0.0159	0.9968	0.0610	0.0000	0.0000	-0.3571	-5.2954	177.7368	37.9100	37	0	0 
02368.364	0.0559	-0.0159	0.9968	0.0610	0.0000	0.0000	-0.3571	-5.2954	177.7368	37.9100	37	0	0 
02368.371	0.0559	-0.0159	0.9968	0.0610	0.0000	0.0000	-0.3571	-5.2954	177.7368	37.8400	37	0	0 
02368.381	0.0559	-0.0159	0.9968	0.0610	0.0000	0.0000	-0.3571	-5.2954	177.7368	37.8400	38	0	0 
02368.381	0.0559	-0.0159	0.9968	0.0610	0.0000	0.0000	-0.3571	-5.2954	177.7368	37.8400	38	0	0 
02368.387	0.0559	-0.0159	0.9968	0.0610	0.0000	0.0000	-0.3571	-5.2954	177.7368	37.7900	37	0	0 
02368.395	0.0559	-0.0159	0.9968	0.0610	0.0000	0.0000	-0.3571	-5.2954	177.7368	37.7900	38	0	0 
02368.395	0.0559	-0.0159	0.9968	0.0610	0.0000	0.0000	-0.3571	-5.2954	177.7368	37.8800	39	0	0 
02368.403	0.0579	-0.0159	0.9968	0.1221	0.0000	0.0000	-0.3571	-5.2954	177.7368	37.8800	38	0	0 
02368.407	0.0579	-0.0159	0.9968	0.1221	0.0000	0.0000	-0.3571	-5.2954	177.7368	37.8500	38	0	0 
02368.407	0.0579	-0.0159	0.9968	0.1221	0.0000	0.0000	-0.3571	-5.2954	177.7368	37.8500	39	0	0 
02368.415	0.0579	-0.0159	0.9968	0.1221	0.0000	0.0000	-0.3571	-5.3009	177.7368	37.8200	40	0	0 
02368.426	0.0579	-0.0159	0.9968	0.1221	0.0000	0.0000	-0.3516	-5.3009	177.7368	37.8200	39	0	0 
02368.430	0.0579	-0.0159	0.9968	0.1221	0.0000	0.0000	-0.3516	-5.3009	177.7368	37.8400	38	0	0 
02368.430	0.0579	-0.0159	0.9968	0.1221	0.0000	0.0000	-0.3516	-5.3009	177.7368	37.8400	37	0	0 
02368.437	0.0579	-0.0159	0.9968	0.1221	0.0000	0.0000	-0.3516	-5.3009	177.7368	37.8600	37	0	0 
02368.446	0.0591	-0.0166	0.9968	0.1221	0.0000	0.0610	-0.3516	-5.3009	177.7368	37.8600	36	0	0 
02368.446	0.0591	-0.0166	0.9968	0.1221	0.0000	0.0610	-0.3516	-5.3009	177.7368	37.8500	36	0	0 
02368.450	0.0591	-0.0166	0.9968	0.1221	0.0000	0.0610	-0.3516	-5.3009	177.7368	37.8500	37	0	0 
02368.460	0.0591	-0.0166	0.9968	0.1221	0.0000	0.0610	-0.3516	-5.3064	177.7368	37.8500	39	0	0 
02368.460	0.0591	-0.0166	0.9968	0.1221	0.0000	0.0610	-0.3516	-5.3064	177.7368	37.8500	38	0	0 
02368.467	0.0591	-0.0166	0.9968	0.1221	0.0000	0.0610	-0.3516	-5.3064	177.7368	37.8500	38	0	0 
02368.473	0.0591	-0.0166	0.9968	0.1221	0.0000	0.0610	-0.3516	-5.3064	177.7368	37.9000	38	0	0 
02368.473	0.0591	-0.0166	0.9968	0.1221	0.0000	0.0610	-0.3516	-5.3064	177.7368	37.9000	38	0	0 
02368.481	0.0574	-0.0154	0.9961	0.1221	0.0000	0.0610	-0.3516	-5.3064	177.7423	37.8500	39	0	0 
02368.489	0.0574	-0.0154	0.9961	0.1221	0.0000	0.0610	-0.3516	-5.3064	177.7423	37.8500	39	0	0 
02368.489	0.0574	-0.0154	0.9961	0.1221	0.0000	0.0610	-0.3461	-5.3119	177.7423	37.7800	39	0	0 
02368.493	0.0574	-0.0154	0.9961	0.1221	0.0000	0.0610	-0.3461	-5.3119	177.7423	37.7800	39	0	0 
02368.504	0.0574	-0.0154	0.9961	0.1221	0.0000	0.0610	-0.3461	-5.3119	177.7423	37.8300	40	0	0 
02368.504	0.0574	-0.0154	0.9961	0.1221	0.0000	0.0610	-0.3461	-5.3119	177.7423	37.8300	40	0	0 
02368.510	0.0574	-0.0154	0.9961	0.1221	0.0000	0.0610	-0.3461	-5.3119	177.7423	37.8500	40	0	0 
02368.516	0.0574	-0.0154	0.9961	0.1221	0.0000	0.0610	-0.3461	-5.3119	177.7423	37.8500	40	0	0 
02368.523	0.0552	-0.0132	0.9968	0.1221	0.0000	0.0610	-0.3461	-5.3119	177.7423	37.8800	40	0	0 
02368.523	0.0552	-0.0132	0.9968	0.1221	0.0000	0.0610	-0.3461	-5.3119	177.7423	37.8800	40	0	0 
02368.530	0.0552	-0.0132	0.9968	0.1221	0.0000	0.0610	-0.3406	-5.3119	177.7423	37.8700	40	0	0 
02368.542	0.0552	-0.0132	0.9968	0.1221	0.0000	0.0610	-0.3406	-5.3119	177.7423	37.8700	40	0	0 
02368.542	0.0552	-0.0132	0.9968	0.1221	0.0000	0.0610	-0.3406	-5.3119	177.7423	37.8700	40	0	0 
02368.551	0.0552	-0.0132	0.9968	0.1221	0.0000	0.0610	-0.3406	-5.3119	177.7423	37.8400	40	0	0 
02368.553	0.0552	-0.0132	0.9968	0.1221	0.0000	0.0610	-0.3406	-5.3119	177.7423	37.8400	39	0	0 
02368.553	0.0552	-0.0132	0.9968	0.1221	0.0000	0.0610	-0.3406	-5.3119	177.7423	37.8500	39	0	0 
02368.560	0.0505	-0.0161	0.9956	0.1221	0.0000	0.1221	-0.3406	-5.3119	177.7423	37.8500	38	0	0 
02368.584	0.0505	-0.0161	0.9956	0.1221	0.0000	0.1221	-0.3406	-5.3119	177.7478	37.8300	37	0	0 
02368.584	0.0505	-0.0161	0.9956	0.1221	0.0000	0.1221	-0.3351	-5.3119	177.7478	37.8300	36	0	0 
02368.589	0.0505	-0.0161	0.9956	0.1221	0.0000	0.1221	-0.3351	-5.3119	177.7478	37.8300	36	0	0 
02368.589	0.0505	-0.0161	0.9956	0.1221	0.0000	0.1221	-0.3351	-5.3119	177.7478	37.8300	36	0	0 
02368.589	0.0505	-0.0161	0.9956	0.1221	0.0000	0.1221	-0.3351	-5.3119	177.7478	37.8900	35	0	0 
02368.607	0.0505	-0.0161	0.9956	0.1221	0.0000	0.1221	-0.3351	-5.3064	177.7478	37.8900	34	0	0 
02368.616	0.0505	-0.0161	0.9956	0.1221	0.0000	0.1221	-0.3351	-5.3064	177.7478	37.8700	34	0	0 
02368.618	0.0476	-0.0142	0.9971	0.0610	0.0610	0.1221	-0.3351	-5.3064	177.7478	37.8700	34	0	0 
02368.618	0.0476	-0.0142	0.9971	0.0610	0.0610	0.1221	-0.3351	-5.3064	177.7478	37.9000	34	0	0 
02368.622	0.0476	-0.0142	0.9971	0.0610	0.0610	0.1221	-0.3351	-5.3064	177.7533	37.9000	34	0	0 
02368.624	0.0476	-0.0142	0.9971	0.0610	0.0610	0.1221	-0.3351	-5.3009	177.7533	37.8000	36	0	0 
02368.624	0.0476	-0.0142	0.9971	0.0610	0.0610	0.1221	-0.3351	-5.3009	177.7533	37.8000	37	0	0 
02368.626	0.0476	-0.0142	0.9971	0.0610	0.0610	0.1221	-0.3351	-5.3009	177.7533	37.8000	37	0	0 
02368.636	0.0476	-0.0142	0.9971	0.0610	0.0610	0.1221	-0.3351	-5.2954	177.7533	37.8100	37	0	0 
02368.636	0.0476	-0.0142	0.9971	0.0610	0.0610	0.1221	-0.3351	-5.2954	177.7533	37.8100	36	0	0 
02368.638	0.0493	-0.0144	0.9958	0.0610	0.0610	0.0610	-0.3351	-5.2954	177.7533	37.8500	35	0	0 
02368.648	0.0493	-0.0144	0.9958	0.0610	0.0610	0.0610	-0.3296	-5.2954	177.7533	37.8500	35	0	0 
02368.648	0.0493	-0.0144	0.9958	0.0610	0.0610	0.0610	-0.3296	-5.2954	177.7533	37.8200	34	0	0 
02368.655	0.0493	-0.0144	0.9958	0.0610	0.0610	0.0610	-0.3296	-5.2899	177.7533	37.8200	33	0	0 
02368.663	0.0493	-0.0144	0.9958	0.0610	0.0610	0.0610	-0.3296	-5.2899	177.7533	37.8400	33	0	0 
02368.663	0.0493	-0.0144	0.9958	0.0610	0.0610	0.0610	-0.3296	-5.2899	177.7533	37.8400	34	0	0 
02368.665	0.0493	-0.0144	0.9958	0.0610	0.0610	0.0610	-0.3296	-5.2899	177.7533	37.8500	35	0	0 
02368.678	0.0493	-0.0144	0.9958	0.0610	0.0610	0.0610	-0.3296	-5.2899	177.7533	37.8500	35	0	0 
02368.678	0.0500	-0.0156	0.9968	0.0610	0.0000	0.0610	-0.3296	-5.2844	177.7533	37.8700	36	0	0 
02368.682	0.0500	-0.0156	0.9968	0.0610	0.0000	0.0610	-0.3296	-5.2844	177.7588	37.8700	36	0	0 
02368.693	0.0500	-0.0156	0.9968	0.0610	0.0000	0.0610	-0.3296	-5.2844	177.7588	37.9200	36	0	0 
02368.698	0.0500	-0.0156	0.9968	0.0610	0.0000	0.0610	-0.3296	-5.2844	177.7588	37.9200	36	0	0 
02368.698	0.0500	-0.0156	0.9968	0.0610	0.0000	0.0610	-0.3296	-5.2844	177.7588	37.9000	36	0	0 
02368.704	0.0500	-0.0156	0.9968	0.0610	0.0000	0.0610	-0.3296	-5.2844	177.7588	37.9000	36	0	0 
02368.721	0.0500	-0.0156	0.9968	0.0610	0.0000	0.0610	-0.3296	-5.2844	177.7588	37.9000	35	0	0 
02368.721	0.0500	-0.0156	0.9968	0.0610	0.0000	0.0610	-0.3296	-5.2844	177.7588	37.8800	35	0	0 
02368.723	0.0530	-0.0149	0.9961	0.0000	0.0000	0.0000	-0.3296	-5.2844	177.7588	37.8800	35	0	0 
02368.730	0.0530	-0.0149	0.9961	0.0000	0.0000	0.0000	-0.3296	-5.2844	177.7588	37.8600	35	0	0 
02368.730	0.0530	-0.0149	0.9961	0.0000	0.0000	0.0000	-0.3296	-5.2844	177.7588	37.8600	35	0	0 
02368.735	0.0530	-0.0149	0.9961	0.0000	0.0000	0.0000	-0.3296	-5.2844	177.7588	37.8300	36	0	0 
02368.767	0.0530	-0.0149	0.9961	0.0000	0.0000	0.0000	-0.3296	-5.2844	177.7588	37.8300	36	0	0 
02368.767	0.0530	-0.0149	0.9961	0.0000	0.0000	0.0000	-0.3296	-5.2789	177.7588	37.9100	36	0	0 
02368.769	0.0530	-0.0149	0.9961	0.0000	0.0000	0.0000	-0.3296	-5.2789	177.7588	37.9100	35	0	0 
02368.769	0.0530	-0.0149	0.9961	0.0000	0.0000	0.0000	-0.3296	-5.2789	177.7588	37.7700	35	0	0 
02368.769	0.0547	-0.0144	0.9963	0.0610	0.0000	0.0000	-0.3296	-5.2789	177.7588	37.7700	35	0	0 
02368.769	0.0547	-0.0144	0.9963	0.0610	0.0000	0.0000	-0.3296	-5.2844	177.7588	37.7800	34	0	0 
02368.772	0.0547	-0.0144	0.9963	0.0610	0.0000	0.0000	-0.3296	-5.2844	177.7588	37.7800	34	0	0 
02368.779	0.0547	-0.0144	0.9963	0.0610	0.0000	0.0000	-0.3296	-5.2844	177.7588	37.8500	33	0	0 
02368.779	0.0547	-0.0144	0.9963	0.0610	0.0000	0.0000	-0.3296	-5.2844	177.7588	37.8500	33	0	0 
02368.785	0.0547	-0.0144	0.9963	0.0610	0.0000	0.0000	-0.3296	-5.2844	177.7588	37.7700	34	0	0 
02368.795	0.0547	-0.0144	0.9963	0.0610	0.0000	0.0000	-0.3296	-5.2844	177.7588	37.7700	35	0	0 
02368.795	0.0547	-0.0144	0.9963	0.0610	0.0000	0.0000	-0.3241	-5.2844	177.7588	37.7700	34	0	0 
02368.799	0.0554	-0.0142	0.9966	0.0610	0.0000	0.0000	-0.3241	-5.2844	177.7588	37.8800	34	0	0 
02368.808	0.0554	-0.0142	0.9966	0.0610	0.0000	0.0000	-0.3241	-5.2844	177.7588	37.8800	34	0	0 
02368.808	0.0554	-0.0142	0.9966	0.0610	0.0000	0.0000	-0.3241	-5.2844	177.7588	37.8700	34	0	0 
02368.816	0.0554	-0.0142	0.9966	0.0610	0.0000	0.0000	-0.3241	-5.2844	177.7588	37.8700	34	0	0 
02368.824	0.0554	-0.0142	0.9966	0.0610	0.0000	0.0000	-0.3241	-5.2844	177.7588	37.9100	34	0	0 
02368.827	0.0554	-0.0142	0.9966	0.0610	0.0000	0.0000	-0.3241	-5.2844	177.7588	37.9100	35	0	0 
02368.828	0.0554	-0.0142	0.9966	0.0610	0.0000	0.0000	-0.3241	-5.2844	177.7588	37.9100	36	0	0 
02368.838	0.0554	-0.0142	0.9966	0.0610	0.0000	0.0000	-0.3241	-5.2844	177.7588	37.9100	38	0	0 
02368.838	0.0557	-0.0154	0.9961	0.0000	0.0000	0.0000	-0.3241	-5.2844	177.7588	37.8600	37	0	0 
02368.843	0.0557	-0.0154	0.9961	0.0000	0.0000	0.0000	-0.3241	-5.2844	177.7588	37.8600	37	0	0 
02368.855	0.0557	-0.0154	0.9961	0.0000	0.0000	0.0000	-0.3241	-5.2844	177.7533	37.8900	38	0	0 
02368.859	0.0557	-0.0154	0.9961	0.0000	0.0000	0.0000	-0.3241	-5.2844	177.7533	37.8900	39	0	0 
02368.859	0.0557	-0.0154	0.9961	0.0000	0.0000	0.0000	-0.3241	-5.2844	177.7533	37.9000	39	0	0 
02368.865	0.0557	-0.0154	0.9961	0.0000	0.0000	0.0000	-0.3241	-5.2844	177.7533	37.9000	39	0	0 
02368.876	0.0557	-0.0154	0.9961	0.0000	0.0000	0.0000	-0.3241	-5.2844	177.7533	37.9000	39	0	0 
02368.876	0.0549	-0.0139	0.9966	0.0000	0.0000	0.0000	-0.3241	-5.2899	177.7533	37.8500	40	0	0 
02368.879	0.0549	-0.0139	0.9966	0.0000	0.0000	0.0000	-0.3241	-5.2899	177.7533	37.8500	40	0	0 
02368.889	0.0549	-0.0139	0.9966	0.0000	0.0000	0.0000	-0.3241	-5.2899	177.7533	37.9200	40	0	0 
02368.889	0.0549	-0.0139	0.9966	0.0000	0.0000	0.0000	-0.3241	-5.2899	177.7533	37.9200	40	0	0 
02368.893	0.0549	-0.0139	0.9966	0.0000	0.0000	0.0000	-0.3241	-5.2899	177.7533	37.9000	39	0	0 
02368.904	0.0549	-0.0139	0.9966	0.0000	0.0000	0.0000	-0.3241	-5.2899	177.7533	37.9000	39	0	0 
02368.906	0.0549	-0.0139	0.9966	0.0000	0.0000	0.0000	-0.3241	-5.2899	177.7533	37.8700	38	0	0 
02368.906	0.0549	-0.0139	0.9966	0.0000	0.0000	0.0000	-0.3241	-5.2899	177.7533	37.8700	38	0	0 
02368.944	0.0554	-0.0144	0.9958	0.0000	0.0610	0.0000	-0.3241	-5.2899	177.7533	37.8900	37	0	0 
02368.946	0.0554	-0.0144	0.9958	0.0000	0.0610	0.0000	-0.3241	-5.2899	177.7533	37.8900	37	0	0 
02368.946	0.0554	-0.0144	0.9958	0.0000	0.0610	0.0000	-0.3241	-5.2899	177.7533	37.9000	37	0	0 
02368.946	0.0554	-0.0144	0.9958	0.0000	0.0610	0.0000	-0.3241	-5.2899	177.7533	37.9000	38	0	0 
02368.946	0.0554	-0.0144	0.9958	0.0000	0.0610	0.0000	-0.3241	-5.2899	177.7533	37.8500	39	0	0 
02368.946	0.0554	-0.0144	0.9958	0.0000	0.0610	0.0000	-0.3241	-5.2899	177.7533	37.8500	38	0	0 
02368.946	0.0554	-0.0144	0.9958	0.0000	0.0610	0.0000	-0.3241	-5.2899	177.7533	37.8900	37	0	0 
02368.957	0.0554	-0.0144	0.9958	0.0000	0.0610	0.0000	-0.3241	-5.2899	177.7533	37.8900	38	0	0 
02368.957	0.0544	-0.0151	0.9963	0.0000	0.0610	0.0000	-0.3241	-5.2899	177.7533	37.8900	38	0	0 
02368.959	0.0544	-0.0151	0.9963	0.0000	0.0610	0.0000	-0.3241	-5.2899	177.7533	37.8400	38	0	0 
02368.972	0.0544	-0.0151	0.9963	0.0000	0.0610	0.0000	-0.3241	-5.2899	177.7533	37.8400	37	0	0 
02368.972	0.0544	-0.0151	0.9963	0.0000	0.0610	0.0000	-0.3241	-5.2899	177.7533	37.8300	37	0	0 
02368.974	0.0544	-0.0151	0.9963	0.0000	0.0610	0.0000	-0.3241	-5.2844	177.7533	37.8300	37	0	0 
02368.983	0.0544	-0.0151	0.9963	0.0000	0.0610	0.0000	-0.3241	-5.2844	177.7533	37.8600	37	0	0 
02368.995	0.0544	-0.0151	0.9963	0.0000	0.0610	0.0000	-0.3241	-5.2844	177.7533	37.8600	38	0	0 
02368.995	0.0544	-0.0151	0.9963	0.0000	0.0610	0.0000	-0.3241	-5.2844	177.7533	37.7900	38	0	0 
02368.998	0.0547	-0.0142	0.9961	0.0000	0.0610	0.0000	-0.3241	-5.2844	177.7533	37.7900	38	0	0 
02369.002	0.0547	-0.0142	0.9961	0.0000	0.0610	0.0000	-0.3241	-5.2844	177.7533	37.9000	37	0	0 
02369.002	0.0547	-0.0142	0.9961	0.0000	0.0610	0.0000	-0.3241	-5.2844	177.7533	37.9000	37	0	0 
02369.016	0.0547	-0.0142	0.9961	0.0000	0.0610	0.0000	-0.3241	-5.2844	177.7533	37.8500	37	0	0 
02369.018	0.0547	-0.0142	0.9961	0.0000	0.0610	0.0000	-0.3241	-5.2844	177.7533	37.8500	36	0	0 
02369.018	0.0547	-0.0142	0.9961	0.0000	0.0610	0.0000	-0.3241	-5.2844	177.7533	37.8000	37	0	0 
02369.028	0.0547	-0.0142	0.9961	0.0000	0.0610	0.0000	-0.3241	-5.2844	177.7533	37.8000	37	0	0 
02369.036	0.0547	-0.0142	0.9961	0.0000	0.0610	0.0000	-0.3241	-5.2844	177.7533	37.8300	37	0	0 
02369.036	0.0544	-0.0149	0.9966	0.0000	0.0000	0.0000	-0.3241	-5.2844	177.7533	37.8300	37	0	0 
02369.045	0.0544	-0.0149	0.9966	0.0000	0.0000	0.0000	-0.3241	-5.2844	177.7533	37.8300	37	0	0 
02369.047	0.0544	-0.0149	0.9966	0.0000	0.0000	0.0000	-0.3241	-5.2844	177.7533	37.8300	38	0	0 
02369.056	0.0544	-0.0149	0.9966	0.0000	0.0000	0.0000	-0.3241	-5.2844	177.7533	37.8300	38	0	0 
02369.056	0.0544	-0.0149	0.9966	0.0000	0.0000	0.0000	-0.3241	-5.2844	177.7533	37.8700	37	0	0 
02369.062	0.0544	-0.0149	0.9966	0.0000	0.0000	0.0000	-0.3241	-5.2844	177.7533	37.8700	36	0	0 
02369.071	0.0544	-0.0149	0.9966	0.0000	0.0000	0.0000	-0.3241	-5.2844	177.7533	37.9100	36	0	0 
02369.071	0.0544	-0.0149	0.9966	0.0000	0.0000	0.0000	-0.3241	-5.2844	177.7533	37.9100	36	0	0 
02369.079	0.0540	-0.0151	0.9971	0.0000	0.0000	0.0000	-0.3241	-5.2844	177.7533	37.8800	35	0	0 
02369.083	0.0540	-0.0151	0.9971	0.0000	0.0000	0.0000	-0.3241	-5.2844	177.7533	37.8800	35	0	0 
02369.083	0.0540	-0.0151	0.9971	0.0000	0.0000	0.0000	-0.3241	-5.2844	177.7533	37.8400	35	0	0 
02369.092	0.0540	-0.0151	0.9971	0.0000	0.0000	0.0000	-0.3241	-5.2844	177.7533	37.8400	35	0	0 
02369.101	0.0540	-0.0151	0.9971	0.0000	0.0000	0.0000	-0.3241	-5.2844	177.7533	37.8000	35	0	0 
02369.101	0.0540	-0.0151	0.9971	0.0000	0.0000	0.0000	-0.3241	-5.2844	177.7533	37.8000	36	0	0 
02369.103	0.0540	-0.0151	0.9971	0.0000	0.0000	0.0000	-0.3241	-5.2844	177.7533	37.8200	35	0	0 
02369.120	0.0540	-0.0151	0.9971	0.0000	0.0000	0.0000	-0.3241	-5.2844	177.7533	37.8200	35	0	0 
02369.120	0.0540	-0.0156	0.9968	0.0000	0.0000	0.0000	-0.3241	-5.2844	177.7533	37.8900	35	0	0 
02369.122	0.0540	-0.0156	0.9968	0.0000	0.0000	0.0000	-0.3241	-5.2844	177.7533	37.8900	35	0	0 
02369.131	0.0540	-0.0156	0.9968	0.0000	0.0000	0.0000	-0.3241	-5.2844	177.7533	37.8900	36	0	0 
02369.134	0.0540	-0.0156	0.9968	0.0000	0.0000	0.0000	-0.3241	-5.2844	177.7533	37.8800	37	0	0 
02369.134	0.0540	-0.0156	0.9968	0.0000	0.0000	0.0000	-0.3241	-5.2844	177.7533	37.8800	38	0	0 
02369.142	0.0540	-0.0156	0.9968	0.0000	0.0000	0.0000	-0.3241	-5.2844	177.7533	37.8000	38	0	0 
02369.151	0.0540	-0.0156	0.9968	0.0000	0.0000	0.0000	-0.3241	-5.2844	177.7533	37.8000	37	0	0 
02369.151	0.0540	-0.0156	0.9968	0.0000	0.0000	0.0000	-0.3241	-5.2844	177.7533	37.8800	37	0	0 
02369.183	0.0542	-0.0146	0.9968	0.0000	0.0000	0.0000	-0.3241	-5.2844	177.7533	37.8800	37	0	0 
02369.189	0.0542	-0.0146	0.9968	0.0000	0.0000	0.0000	-0.3241	-5.2844	177.7533	37.8600	38	0	0 
02369.189	0.0542	-0.0146	0.9968	0.0000	0.0000	0.0000	-0.3241	-5.2844	177.7533	37.8600	38	0	0 
02369.189	0.0542	-0.0146	0.9968	0.0000	0.0000	0.0000	-0.3241	-5.2844	177.7533	37.8300	38	0	0 
02369.189	0.0542	-0.0146	0.9968	0.0000	0.0000	0.0000	-0.3241	-5.2844	177.7533	37.8300	39	0	0 
02369.189	0.0542	-0.0146	0.9968	0.0000	0.0000	0.0000	-0.3241	-5.2844	177.7533	37.8500	39	0	0 
02369.192	0.0542	-0.0146	0.9968	0.0000	0.0000	0.0000	-0.3241	-5.2844	177.7533	37.8500	38	0	0 
02369.194	0.0542	-0.0146	0.9968	0.0000	0.0000	0.0000	-0.3241	-5.2844	177.7533	37.8900	37	0	0 
02369.194	0.0542	-0.0156	0.9968	0.0000	0.0000	0.0000	-0.3241	-5.2844	177.7533	37.8900	37	0	0 
02369.199	0.0542	-0.0156	0.9968	0.0000	0.0000	0.0000	-0.3241	-5.2844	177.7533	37.8900	38	0	0 
02369.210	0.0542	-0.0156	0.9968	0.0000	0.0000	0.0000	-0.3241	-5.2844	177.7533	37.8600	38	0	0 
02369.218	0.0542	-0.0156	0.9968	0.0000	0.0000	0.0000	-0.3241	-5.2844	177.7533	37.8600	39	0	0 
02369.218	0.0542	-0.0156	0.9968	0.0000	0.0000	0.0000	-0.3241	-5.2844	177.7533	37.8800	39	0	0 
02369.220	0.0542	-0.0156	0.9968	0.0000	0.0000	0.0000	-0.3241	-5.2844	177.7533	37.8800	38	0	0 
02369.250	0.0542	-0.0156	0.9968	0.0000	0.0000	0.0000	-0.3241	-5.2844	177.7533	37.8900	38	0	0 
02369.250	0.0542	-0.0156	0.9968	0.0000	0.0000	0.0000	-0.3241	-5.2844	177.7533	37.8900	38	0	0 
02369.259	0.0542	-0.0151	0.9966	0.0000	0.0000	0.0000	-0.3241	-5.2844	177.7533	37.8500	39	0	0 
02369.261	0.0542	-0.0151	0.9966	0.0000	0.0000	0.0000	-0.3241	-5.2899	177.7533	37.8500	40	0	0 
02369.261	0.0542	-0.0151	0.9966	0.0000	0.0000	0.0000	-0.3241	-5.2899	177.7533	37.8800	40	0	0 
02369.264	0.0542	-0.0151	0.9966	0.0000	0.0000	0.0000	-0.3241	-5.2899	177.7533	37.8800	40	0	0 
02369.269	0.0542	-0.0151	0.9966	0.0000	0.0000	0.0000	-0.3296	-5.2899	177.7533	37.8400	40	0	0 
02369.269	0.0542	-0.0151	0.9966	0.0000	0.0000	0.0000	-0.3296	-5.2899	177.7533	37.8400	40	0	0 
02369.276	0.0542	-0.0151	0.9966	0.0000	0.0000	0.0000	-0.3296	-5.2899	177.7533	37.8400	39	0	0 
02369.278	0.0542	-0.0151	0.9966	0.0000	0.0000	0.0000	-0.3296	-5.2899	177.7533	37.8400	39	0	0 
02369.278	0.0547	-0.0142	0.9968	0.0000	0.0000	0.0000	-0.3296	-5.2899	177.7533	37.8900	38	0	0 
02369.281	0.0547	-0.0142	0.9968	0.0000	0.0000	0.0000	-0.3296	-5.2899	177.7533	37.8900	37	0	0 
02369.288	0.0547	-0.0142	0.9968	0.0000	0.0000	0.0000	-0.3296	-5.2899	177.7533	37.8900	35	0	0 
02369.298	0.0547	-0.0142	0.9968	0.0000	0.0000	0.0000	-0.3241	-5.2899	177.7533	37.8000	34	0	0 
02369.298	0.0547	-0.0142	0.9968	0.0000	0.0000	0.0000	-0.3241	-5.2899	177.7533	37.8000	33	0	0 
02369.303	0.0547	-0.0142	0.9968	0.0000	0.0000	0.0000	-0.3241	-5.2899	177.7533	37.8200	33	0	0 
02369.309	0.0547	-0.0142	0.9968	0.0000	0.0000	0.0000	-0.3241	-5.2899	177.7533	37.8200	32	0	0 
02369.309	0.0547	-0.0142	0.9968	0.0000	0.0000	0.0000	-0.3241	-5.2899	177.7533	37.8800	33	0	0 
02369.322	0.0542	-0.0151	0.9966	0.0000	0.0000	0.0000	-0.3241	-5.2899	177.7533	37.8800	34	0	0 
02369.325	0.0542	-0.0151	0.9966	0.0000	0.0000	0.0000	-0.3241	-5.2899	177.7533	37.8900	34	0	0 
02369.325	0.0542	-0.0151	0.9966	0.0000	0.0000	0.0000	-0.3241	-5.2899	177.7533	37.8900	34	0	0 
02369.332	0.0542	-0.0151	0.9966	0.0000	0.0000	0.0000	-0.3241	-5.2899	177.7533	37.9300	34	0	0 
02369.358	0.0542	-0.0151	0.9966	0.0000	0.0000	0.0000	-0.3241	-5.2899	177.7533	37.9300	34	0	0 
02369.358	0.0542	-0.0151	0.9966	0.0000	0.0000	0.0000	-0.3241	-5.2899	177.7533	37.8900	33	0	0 
02369.364	0.0542	-0.0151	0.9966	0.0000	0.0000	0.0000	-0.3296	-5.2899	177.7533	37.8900	33	0	0 
02369.364	0.0542	-0.0151	0.9966	0.0000	0.0000	0.0000	-0.3296	-5.2899	177.7533	37.8800	33	0	0 
02369.364	0.0542	-0.0149	0.9968	0.0000	0.0000	0.0000	-0.3296	-5.2899	177.7533	37.8800	33	0	0 
02369.366	0.0542	-0.0149	0.9968	0.0000	0.0000	0.0000	-0.3296	-5.2899	177.7533	37.8200	34	0	0 
02369.366	0.0542	-0.0149	0.9968	0.0000	0.0000	0.0000	-0.3296	-5.2899	177.7533	37.8200	35	0	0 
02369.382	0.0542	-0.0149	0.9968	0.0000	0.0000	0.0000	-0.3296	-5.2899	177.7533	37.8200	36	0	0 
02369.382	0.0542	-0.0149	0.9968	0.0000	0.0000	0.0000	-0.3296	-5.2899	177.7533	37.9300	36	0	0 
02369.388	0.0542	-0.0149	0.9968	0.0000	0.0000	0.0000	-0.3296	-5.2899	177.7533	37.9300	36	0	0 
02369.390	0.0542	-0.0149	0.9968	0.0000	0.0000	0.0000	-0.3296	-5.2899	177.7533	37.8700	36	0	0 
02369.390	0.0542	-0.0149	0.9968	0.0000	0.0000	0.0000	-0.3296	-5.2899	177.7533	37.8700	35	0	0 
02369.397	0.0547	-0.0149	0.9966	0.0000	0.0000	0.0000	-0.3296	-5.2899	177.7533	37.9500	35	0	0 
02369.410	0.0547	-0.0149	0.9966	0.0000	0.0000	0.0000	-0.3296	-5.2899	177.7533	37.9500	35	0	0 
02369.410	0.0547	-0.0149	0.9966	0.0000	0.0000	0.0000	-0.3296	-5.2899	177.7533	37.8500	34	0	0 
02369.412	0.0547	-0.0149	0.9966	0.0000	0.0000	0.0000	-0.3296	-5.2899	177.7533	37.8500	35	0	0 
02369.420	0.0547	-0.0149	0.9966	0.0000	0.0000	0.0000	-0.3296	-5.2899	177.7533	37.9000	35	0	0 
02369.420	0.0547	-0.0149	0.9966	0.0000	0.0000	0.0000	-0.3296	-5.2899	177.7533	37.9000	36	0	0 
02369.430	0.0547	-0.0149	0.9966	0.0000	0.0000	0.0000	-0.3296	-5.2899	177.7533	37.8800	37	0	0 
02369.435	0.0547	-0.0149	0.9966	0.0000	0.0000	0.0000	-0.3296	-5.2899	177.7478	37.8800	37	0	0 
02369.435	0.0547	-0.0151	0.9963	0.0000	0.0000	0.0000	-0.3296	-5.2899	177.7478	37.8100	37	0	0 
02369.438	0.0547	-0.0151	0.9963	0.0000	0.0000	0.0000	-0.3296	-5.2899	177.7478	37.8100	36	0	0 
02369.453	0.0547	-0.0151	0.9963	0.0000	0.0000	0.0000	-0.3296	-5.2899	177.7478	37.8500	35	0	0 
02369.453	0.0547	-0.0151	0.9963	0.0000	0.0000	0.0000	-0.3296	-5.2899	177.7478	37.8500	36	0	0 
02369.455	0.0547	-0.0151	0.9963	0.0000	0.0000	0.0000	-0.3296	-5.2899	177.7478	37.8500	36	0	0 
02369.474	0.0547	-0.0151	0.9963	0.0000	0.0000	0.0000	-0.3296	-5.2899	177.7478	37.8900	37	0	0 
02369.476	0.0547	-0.0151	0.9963	0.0000	0.0000	0.0000	-0.3296	-5.2899	177.7478	37.8900	37	0	0 
02369.476	0.0547	-0.0151	0.9963	0.0000	0.0000	0.0000	-0.3296	-5.2899	177.7478	37.8400	37	0	0 
02369.476	0.0549	-0.0151	0.9963	0.0000	0.0000	0.0000	-0.3296	-5.2899	177.7478	37.8400	38	0	0 
02369.485	0.0549	-0.0151	0.9963	0.0000	0.0000	0.0000	-0.3296	-5.2899	177.7478	37.7900	37	0	0 
02369.485	0.0549	-0.0151	0.9963	0.0000	0.0000	0.0000	-0.3296	-5.2899	177.7478	37.7900	37	0	0 
02369.489	0.0549	-0.0151	0.9963	0.0000	0.0000	0.0000	-0.3296	-5.2899	177.7478	37.8600	38	0	0 
02369.501	0.0549	-0.0151	0.9963	0.0000	0.0000	0.0000	-0.3296	-5.2899	177.7478	37.8600	38	0	0 
02369.501	0.0549	-0.0151	0.9963	0.0000	0.0000	0.0000	-0.3296	-5.2899	177.7478	37.9100	38	0	0 
02369.507	0.0549	-0.0151	0.9963	0.0000	0.0000	0.0000	-0.3296	-5.2899	177.7478	37.9100	39	0	0 
02369.517	0.0549	-0.0151	0.9963	0.0000	0.0000	0.0000	-0.3296	-5.2954	177.7478	37.8600	39	0	0 
02369.517	0.0552	-0.0149	0.9963	0.0000	0.0000	0.0000	-0.3296	-5.2954	177.7478	37.8600	38	0	0 
02369.520	0.0552	-0.0149	0.9963	0.0000	0.0000	0.0000	-0.3296	-5.2954	177.7478	37.8700	38	0	0 
02369.529	0.0552	-0.0149	0.9963	0.0000	0.0000	0.0000	-0.3296	-5.2954	177.7478	37.8700	39	0	0 
02369.538	0.0552	-0.0149	0.9963	0.0000	0.0000	0.0000	-0.3296	-5.2954	177.7478	37.8400	39	0	0 
02369.538	0.0552	-0.0149	0.9963	0.0000	0.0000	0.0000	-0.3296	-5.2954	177.7478	37.8400	40	0	0 
02369.543	0.0552	-0.0149	0.9963	0.0000	0.0000	0.0000	-0.3296	-5.2954	177.7478	37.8400	41	0	0 
02369.549	0.0552	-0.0149	0.9963	0.0000	0.0000	0.0000	-0.3296	-5.2954	177.7478	37.8700	41	0	0 
02369.549	0.0552	-0.0149	0.9963	0.0000	0.0000	0.0000	-0.3296	-5.2954	177.7478	37.8700	41	0	0 
02369.558	0.0547	-0.0154	0.9966	0.0000	0.0000	0.0000	-0.3296	-5.2954	177.7478	37.8500	41	0	0 
02369.593	0.0547	-0.0154	0.9966	0.0000	0.0000	0.0000	-0.3296	-5.2954	177.7478	37.8500	41	0	0 
02369.593	0.0547	-0.0154	0.9966	0.0000	0.0000	0.0000	-0.3296	-5.2954	177.7478	37.9300	40	0	0 
02369.598	0.0547	-0.0154	0.9966	0.0000	0.0000	0.0000	-0.3296	-5.2954	177.7478	37.9300	40	0	0 
02369.598	0.0547	-0.0154	0.9966	0.0000	0.0000	0.0000	-0.3296	-5.2954	177.7478	37.8800	39	0	0 
02369.598	0.0547	-0.0154	0.9966	0.0000	0.0000	0.0000	-0.3296	-5.2954	177.7478	37.8800	38	0	0 
02369.598	0.0547	-0.0154	0.9966	0.0000	0.0000	0.0000	-0.3296	-5.2954	177.7478	37.8700	37	0	0 
02369.598	0.0547	-0.0154	0.9966	0.0000	0.0000	0.0000	-0.3296	-5.2954	177.7478	37.8700	37	0	0 
02369.598	0.2209	-0.0378	1.0452	0.0000	0.0000	0.0000	-0.3351	-5.3229	177.7478	37.8600	36	0	0 
02369.600	0.2209	-0.0378	1.0452	0.0000	0.0000	0.0000	-0.3351	-5.3503	177.7478	37.8600	35	0	0 
02369.609	0.2209	-0.0378	1.0452	0.0000	0.0000	0.0000	-0.3406	-5.3723	177.7478	37.8900	35	0	0 
02369.609	0.2209	-0.0378	1.0452	0.0000	0.0000	0.0000	-0.3461	-5.3998	177.7478	37.8900	35	0	0 
02369.613	0.2209	-0.0378	1.0452	0.0000	0.0000	0.0000	-0.3461	-5.4272	177.7478	37.8900	35	0	0 
02369.623	0.2209	-0.0378	1.0452	0.0000	0.0000	0.0000	-0.3516	-5.4547	177.7478	37.8500	35	0	0 
02369.629	0.2209	-0.0378	1.0452	0.0000	0.0000	0.0000	-0.3571	-5.4767	177.7478	37.8500	35	0	0 
02369.629	0.2209	-0.0378	1.0452	0.0000	0.0000	0.0000	-0.3571	-5.5042	177.7423	37.8100	35	0	0 
02369.642	0.6570	-0.1008	1.0676	0.0000	-0.7935	0.3662	-0.3735	-5.5920	177.7423	37.8100	35	0	0 
02369.645	0.6570	-0.1008	1.0676	0.0000	-0.7935	0.3662	-0.3845	-5.6799	177.7423	37.8700	34	0	0 
02369.645	0.6570	-0.1008	1.0676	0.0000	-0.7935	0.3662	-0.3955	-5.7678	177.7368	37.8700	34	0	0 
02369.653	0.6570	-0.1008	1.0676	0.0000	-0.7935	0.3662	-0.4120	-5.8557	177.7368	37.8500	33	0	0 
02369.665	0.6570	-0.1008	1.0676	0.0000	-0.7935	0.3662	-0.4230	-5.9381	177.7313	37.8500	32	0	0 
02369.665	0.6570	-0.1008	1.0676	0.0000	-0.7935	0.3662	-0.4340	-6.0260	177.7313	37.9100	31	0	0 
02369.669	0.6570	-0.1008	1.0676	0.0000	-0.7935	0.3662	-0.4504	-6.1139	177.7313	37.9100	31	0	0 
02369.676	0.6570	-0.1008	1.0676	0.0000	-0.7935	0.3662	-0.4614	-6.1963	177.7258	37.8700	31	0	0 
02369.676	1.2349	-0.1899	1.0215	0.0000	-3.3569	1.5259	-0.4889	-6.3501	177.7258	37.8700	30	0	0 
02369.679	1.2349	-0.1899	1.0215	0.0000	-3.3569	1.5259	-0.5109	-6.4984	177.7203	37.8700	29	0	0 
02369.692	1.2349	-0.1899	1.0215	0.0000	-3.3569	1.5259	-0.5383	-6.6467	177.7148	37.8700	29	0	0 
02369.692	1.2349	-0.1899	1.0215	0.0000	-3.3569	1.5259	-0.5658	-6.7950	177.7094	37.8300	29	0	0 
02369.694	1.2349	-0.1899	1.0215	0.0000	-3.3569	1.5259	-0.5878	-6.9434	177.7039	37.8300	29	0	0 
02369.710	1.2349	-0.1899	1.0215	0.0000	-3.3569	1.5259	-0.6152	-7.0917	177.7039	37.8300	29	0	0 
02369.712	1.2349	-0.1899	1.0215	0.0000	-3.3569	1.5259	-0.6427	-7.2400	177.6984	37.8700	30	0	0 
02369.712	1.2349	-0.1899	1.0215	0.0000	-3.3569	1.5259	-0.6647	-7.3883	177.6929	37.8700	30	0	0 
02369.720	1.9607	-0.3335	0.9316	-0.1221	-7.0190	3.4180	-0.7141	-7.5861	177.6819	37.8500	30	0	0 
02369.723	1.9607	-0.3335	0.9316	-0.1221	-7.0190	3.4180	-0.7635	-7.7838	177.6709	37.8500	31	0	0 
02369.723	1.9607	-0.3335	0.9316	-0.1221	-7.0190	3.4180	-0.8075	-7.9871	177.6599	37.8300	31	0	0 
02369.734	1.9607	-0.3335	0.9316	-0.1221	-7.0190	3.4180	-0.8569	-8.1793	177.6489	37.8300	31	0	0 
02369.741	1.9607	-0.3335	0.9316	-0.1221	-7.0190	3.4180	-0.9009	-8.3771	177.6434	37.8400	30	0	0 
02369.741	1.9607	-0.3335	0.9316	-0.1221	-7.0190	3.4180	-0.9503	-8.5748	177.6324	37.8400	29	0	0 
02369.746	1.9607	-0.3335	0.9316	-0.1221	-7.0190	3.4180	-0.9943	-8.7726	177.6215	37.8800	28	0	0 
02369.771	1.9607	-0.3335	0.9316	-0.1221	-7.0190	3.4180	-1.0437	-8.9648	177.6105	37.8800	29	0	0 
02369.771	2.3879	-0.4355	0.8201	-0.3052	-8.9111	5.5542	-1.1096	-9.1846	177.5995	37.8800	29	0	0 
02369.777	2.3879	-0.4355	0.8201	-0.3052	-8.9111	5.5542	-1.1755	-9.3988	177.5885	37.8800	29	0	0 
02369.777	2.3879	-0.4355	0.8201	-0.3052	-8.9111	5.5542	-1.2415	-9.6130	177.5720	37.8500	30	0	0 
02369.778	2.3879	-0.4355	0.8201	-0.3052	-8.9111	5.5542	-1.3074	-9.8273	177.5610	37.8500	30	0	0 
02369.780	2.3879	-0.4355	0.8201	-0.3052	-8.9111	5.5542	-1.3733	-10.0415	177.5500	37.8900	31	0	0 
02369.782	2.3879	-0.4355	0.8201	-0.3052	-8.9111	5.5542	-1.4392	-10.2557	177.5391	37.8900	32	0	0 
02369.805	2.3879	-0.4355	0.8201	-0.3052	-8.9111	5.5542	-1.5051	-10.4700	177.5226	37.8900	33	0	0 
02369.805	2.3879	-0.4355	0.8201	-0.3052	-8.9111	5.5542	-1.5710	-10.6787	177.5116	37.8600	34	0	0 
02369.808	2.4653	-0.4814	0.6943	-0.3662	-6.7139	6.8970	-1.6534	-10.8820	177.4951	37.8600	35	0	0 
02369.810	2.4653	-0.4814	0.6943	-0.3662	-6.7139	6.8970	-1.7358	-11.0852	177.4841	37.7800	36	0	0 
02369.810	2.4653	-0.4814	0.6943	-0.3662	-6.7139	6.8970	-1.8182	-11.2885	177.4677	37.7800	36	0	0 
02369.815	2.4653	-0.4814	0.6943	-0.3662	-6.7139	6.8970	-1.8951	-11.4917	177.4512	37.8600	37	0	0 
02369.843	2.4653	-0.4814	0.6943	-0.3662	-6.7139	6.8970	-1.9775	-11.6949	177.4347	37.8600	37	0	0 
02369.843	2.4653	-0.4814	0.6943	-0.3662	-6.7139	6.8970	-2.0599	-11.8927	177.4237	37.8700	38	0	0 
02369.845	2.4653	-0.4814	0.6943	-0.3662	-6.7139	6.8970	-2.1368	-12.0959	177.4072	37.8700	38	0	0 
02369.853	2.4653	-0.4814	0.6943	-0.3662	-6.7139	6.8970	-2.2192	-12.2937	177.3962	37.8200	39	0	0 
02369.853	2.0693	-0.4348	0.5959	-0.3662	0.4272	6.4697	-2.3016	-12.4585	177.3743	37.8200	40	0	0 
02369.858	2.0693	-0.4348	0.5959	-0.3662	0.4272	6.4697	-2.3840	-12.6178	177.3578	37.8900	41	0	0 
02369.865	2.0693	-0.4348	0.5959	-0.3662	0.4272	6.4697	-2.4664	-12.7771	177.3358	37.8900	41	0	0 
02369.865	2.0693	-0.4348	0.5959	-0.3662	0.4272	6.4697	-2.5488	-12.9419	177.3193	37.8700	42	0	0 
02369.907	2.0693	-0.4348	0.5959	-0.3662	0.4272	6.4697	-2.6312	-13.1012	177.3029	37.8700	43	0	0 
02369.909	2.0693	-0.4348	0.5959	-0.3662	0.4272	6.4697	-2.7136	-13.2605	177.2864	37.8200	43	0	0 
02369.912	2.0693	-0.4348	0.5959	-0.3662	0.4272	6.4697	-2.7905	-13.4198	177.2699	37.8200	44	0	0 
02369.912	2.0693	-0.4348	0.5959	-0.3662	0.4272	6.4697	-2.8729	-13.5791	177.2534	37.8200	46	0	0 
02369.914	1.4441	-0.3130	0.4861	-0.5493	11.2915	4.3335	-2.9498	-13.6780	177.2260	37.8200	47	0	0 
02369.921	1.4441	-0.3130	0.4861	-0.5493	11.2915	4.3335	-3.0212	-13.7823	177.2040	37.8200	47	0	0 
02369.921	1.4441	-0.3130	0.4861	-0.5493	11.2915	4.3335	-3.0927	-13.8812	177.1820	37.8800	48	0	0 
02369.930	1.4441	-0.3130	0.4861	-0.5493	11.2915	4.3335	-3.1641	-13.9801	177.1545	37.8800	49	0	0 
02369.956	1.4441	-0.3130	0.4861	-0.5493	11.2915	4.3335	-3.2355	-14.0790	177.1326	37.9100	50	0	0 
02369.956	1.4441	-0.3130	0.4861	-0.5493	11.2915	4.3335	-3.3124	-14.1779	177.1106	37.9100	51	0	0 
02369.961	1.4441	-0.3130	0.4861	-0.5493	11.2915	4.3335	-3.3838	-14.2767	177.0886	37.8900	52	0	0 
02369.961	1.4441	-0.3130	0.4861	-0.5493	11.2915	4.3335	-3.4552	-14.3756	177.0667	37.8900	52	0	0 
02369.961	0.7217	-0.1631	0.3267	-0.9766	22.0947	1.7700	-3.5101	-14.4141	177.0392	37.8900	53	0	0 
02369.961	0.7217	-0.1631	0.3267	-0.9766	22.0947	1.7700	-3.5706	-14.4470	177.0117	37.8900	52	0	0 
02369.961	0.7217	-0.1631	0.3267	-0.9766	22.0947	1.7700	-3.6255	-14.4800	176.9843	37.8500	52	0	0 
02369.961	0.7217	-0.1631	0.3267	-0.9766	22.0947	1.7700	-3.6804	-14.5184	176.9568	37.8500	52	0	0 
02369.961	0.7217	-0.1631	0.3267	-0.9766	22.0947	1.7700	-3.7408	-14.5514	176.9293	37.8500	51	0	0 
02369.976	0.7217	-0.1631	0.3267	-0.9766	22.0947	1.7700	-3.7958	-14.5844	176.9019	37.8500	51	0	0 
02369.976	0.7217	-0.1631	0.3267	-0.9766	22.0947	1.7700	-3.8507	-14.6173	176.8744	37.8500	51	0	0 
02369.985	0.7217	-0.1631	0.3267	-0.9766	22.0947	1.7700	-3.9056	-14.6503	176.8469	37.9100	51	0	0 
02369.988	0.1289	-0.0347	0.1833	-1.8921	30.0903	0.0610	-3.9331	-14.5679	176.8304	37.9100	51	0	0 
02369.991	0.1289	-0.0347	0.1833	-1.8921	30.0903	0.0610	-3.9551	-14.4855	176.8195	37.8000	50	0	0 
02369.991	0.1289	-0.0347	0.1833	-1.8921	30.0903	0.0610	-3.9771	-14.4031	176.8085	37.8000	49	0	0 
02370.024	0.1289	-0.0347	0.1833	-1.8921	30.0903	0.0610	-4.0045	-14.3207	176.7975	37.8600	50	0	0 
02370.069	0.1289	-0.0347	0.1833	-1.8921	30.0903	0.0610	-4.0265	-14.2383	176.7810	37.8600	50	0	0 
02370.069	0.1289	-0.0347	0.1833	-1.8921	30.0903	0.0610	-4.0485	-14.1559	176.7700	37.8500	50	0	0 
02370.089	0.1289	-0.0347	0.1833	-1.8921	30.0903	0.0610	-4.0704	-14.0735	176.7590	37.8500	50	0	0 
02370.111	0.1289	-0.0347	0.1833	-1.8921	30.0903	0.0610	-4.0979	-13.9911	176.7426	37.8800	49	0	0 
02370.111	-0.2488	0.0525	0.0901	-2.9907	34.5459	0.6104	-4.0155	-13.6066	176.6711	37.8800	49	0	0 
02370.133	-0.2488	0.0525	0.0901	-2.9907	34.5459	0.6104	-3.9331	-13.2275	176.5997	37.8900	50	0	0 
02370.159	-0.2488	0.0525	0.0901	-2.9907	34.5459	0.6104	-3.8562	-12.8485	176.5283	37.8900	49	0	0 
02370.159	-0.2488	0.0525	0.0901	-2.9907	34.5459	0.6104	-3.7793	-12.4640	176.4624	37.8300	49	0	0 
02370.190	-0.2488	0.0525	0.0901	-2.9907	34.5459	0.6104	-3.6969	-12.0850	176.3910	37.8300	49	0	0 
02370.195	-0.2488	0.0525	0.0901	-2.9907	34.5459	0.6104	-3.6200	-11.7059	176.3251	37.8900	49	0	0 
02370.223	-0.2488	0.0525	0.0901	-2.9907	34.5459	0.6104	-3.5486	-11.3324	176.2592	37.8900	48	0	0 
02370.223	-0.2488	0.0525	0.0901	-2.9907	34.5459	0.6104	-3.4717	-10.9534	176.1932	37.8900	48	0	0 
02370.240	-0.4211	0.1001	0.0537	-3.7842	35.1563	3.6011	-3.3289	-10.5798	176.0779	37.9100	48	0	0 
02370.265	-0.4211	0.1001	0.0537	-3.7842	35.1563	3.6011	-3.1915	-10.2063	175.9680	37.9100	47	0	0 
02370.265	-0.4211	0.1001	0.0537	-3.7842	35.1563	3.6011	-3.0542	-9.8383	175.8527	37.8400	48	0	0 
02370.274	-0.4211	0.1001	0.0537	-3.7842	35.1563	3.6011	-2.9169	-9.4647	175.7483	37.8400	48	0	0 
02370.294	-0.4211	0.1001	0.0537	-3.7842	35.1563	3.6011	-2.7795	-9.0967	175.6384	37.8400	48	0	0 
02370.294	-0.4211	0.1001	0.0537	-3.7842	35.1563	3.6011	-2.6477	-8.7231	175.5341	37.8400	48	0	0 
02370.317	-0.4211	0.1001	0.0537	-3.7842	35.1563	3.6011	-2.5159	-8.3551	175.4242	37.8300	47	0	0 
02370.341	-0.4211	0.1001	0.0537	-3.7842	35.1563	3.6011	-2.3785	-7.9871	175.3253	37.8300	47	0	0 
02370.341	-0.4458	0.1211	0.0654	-3.7842	32.4097	8.7891	-2.2522	-7.6355	175.2484	37.8200	46	0	0 
02370.368	-0.4458	0.1211	0.0654	-3.7842	32.4097	8.7891	-2.1204	-7.2839	175.1770	37.8200	46	0	0 
02370.374	-0.4458	0.1211	0.0654	-3.7842	32.4097	8.7891	-1.9940	-6.9324	175.1111	37.8300	45	0	0 
02370.389	-0.4458	0.1211	0.0654	-3.7842	32.4097	8.7891	-1.8622	-6.5808	175.0397	37.8300	45	0	0 
02370.389	-0.4458	0.1211	0.0654	-3.7842	32.4097	8.7891	-1.7358	-6.2292	174.9738	37.8800	44	0	0 
02370.397	-0.4458	0.1211	0.0654	-3.7842	32.4097	8.7891	-1.6095	-5.8832	174.9023	37.8800	44	0	0 
02370.397	-0.4458	0.1211	0.0654	-3.7842	32.4097	8.7891	-1.4832	-5.5316	174.8419	37.8500	43	0	0 
02370.425	-0.4458	0.1211	0.0654	-3.7842	32.4097	8.7891	-1.3568	-5.1855	174.7760	37.8500	43	0	0 
02370.433	-0.3477	0.1367	0.3682	-2.5635	26.1230	15.3809	-1.3184	-4.9219	174.8309	37.8500	41	0	0 
02370.433	-0.3477	0.1367	0.3682	-2.5635	26.1230	15.3809	-1.2744	-4.6637	174.8914	37.9300	39	0	0 
02370.459	-0.3477	0.1367	0.3682	-2.5635	26.1230	15.3809	-1.2360	-4.4055	174.9518	37.9300	37	0	0 
02370.472	-0.3477	0.1367	0.3682	-2.5635	26.1230	15.3809	-1.1920	-4.1418	175.0067	37.8000	36	0	0 
02370.472	-0.3477	0.1367	0.3682	-2.5635	26.1230	15.3809	-1.1536	-3.8837	175.0671	37.8000	35	0	0 
02370.472	-0.3477	0.1367	0.3682	-2.5635	26.1230	15.3809	-1.1096	-3.6255	175.1276	37.8200	35	0	0 
02370.544	-0.3477	0.1367	0.3682	-2.5635	26.1230	15.3809	-1.0657	-3.3728	175.1825	37.8200	33	0	0 
02370.544	-0.3477	0.1367	0.3682	-2.5635	26.1230	15.3809	-1.0272	-3.1146	175.2429	37.8600	32	0	0 
02370.544	-0.3628	0.1411	0.5007	0.4272	15.6250	22.5830	-0.9833	-2.9279	175.3473	37.8600	32	0	0 
02370.620	-0.3628	0.1411	0.5007	0.4272	15.6250	22.5830	-0.9338	-2.7466	175.4517	37.8500	32	0	0 
02370.620	-0.3628	0.1411	0.5007	0.4272	15.6250	22.5830	-0.8899	-2.5598	175.5560	37.8500	31	0	0 
02370.676	-0.3628	0.1411	0.5007	0.4272	15.6250	22.5830	-0.8459	-2.3785	175.6604	37.8600	30	0	0 
02370.676	-0.3628	0.1411	0.5007	0.4272	15.6250	22.5830	-0.8020	-2.1918	175.7593	37.8600	30	0	0 
02370.676	-0.3628	0.1411	0.5007	0.4272	15.6250	22.5830	-0.7581	-2.0105	175.8636	37.8800	30	0	0 
02370.712	-0.3628	0.1411	0.5007	0.4272	15.6250	22.5830	-0.7086	-1.8292	175.9680	37.8800	31	0	0 
02370.712	-0.3628	0.1411	0.5007	0.4272	15.6250	22.5830	-0.6647	-1.6479	176.0669	37.8900	31	0	0 
02370.713	-0.3362	0.1289	0.7874	3.7842	4.5166	28.8696	-0.6207	-1.5546	176.2152	37.8900	31	0	0 
02370.741	-0.3362	0.1289	0.7874	3.7842	4.5166	28.8696	-0.5768	-1.4667	176.3580	37.8900	30	0	0 
02370.741	-0.3362	0.1289	0.7874	3.7842	4.5166	28.8696	-0.5273	-1.3788	176.5009	37.9300	29	0	0 
02370.741	-0.3362	0.1289	0.7874	3.7842	4.5166	28.8696	-0.4834	-1.2854	176.6382	37.9300	28	0	0 
02370.778	-0.3362	0.1289	0.7874	3.7842	4.5166	28.8696	-0.4395	-1.1975	176.7810	37.8200	27	0	0 
02370.778	-0.3362	0.1289	0.7874	3.7842	4.5166	28.8696	-0.3955	-1.1096	176.9238	37.8200	26	0	0 
02370.778	-0.3362	0.1289	0.7874	3.7842	4.5166	28.8696	-0.3461	-1.0217	177.0667	37.9000	25	0	0 
02370.832	-0.3362	0.1289	0.7874	3.7842	4.5166	28.8696	-0.3021	-0.9338	177.2040	37.9000	24	0	0 
02370.832	-0.4065	0.1089	0.8123	5.4321	-3.4180	33.3252	-0.2527	-0.8734	177.3688	37.8900	24	0	0 
02370.832	-0.4065	0.1089	0.8123	5.4321	-3.4180	33.3252	-0.2032	-0.8185	177.5336	37.8900	22	0	0 
02370.859	-0.4065	0.1089	0.8123	5.4321	-3.4180	33.3252	-0.1538	-0.7581	177.6929	37.8500	20	0	0 
02370.859	-0.4065	0.1089	0.8123	5.4321	-3.4180	33.3252	-0.1044	-0.7031	177.8577	37.8500	19	0	0 
02370.859	-0.4065	0.1089	0.8123	5.4321	-3.4180	33.3252	-0.0549	-0.6427	178.0170	37.7900	18	0	0 
02370.954	-0.4065	0.1089	0.8123	5.4321	-3.4180	33.3252	-0.0055	-0.5878	178.1763	37.7900	16	0	0 
02370.954	-0.4065	0.1089	0.8123	5.4321	-3.4180	33.3252	0.0385	-0.5328	178.3356	37.8600	15	0	0 
02370.954	-0.4065	0.1089	0.8123	5.4321	-3.4180	33.3252	0.0879	-0.4724	178.5004	37.8600	13	0	0 
02371.006	-0.5002	0.0898	0.7966	5.3711	-8.3618	36.4380	0.1318	-0.4285	178.6707	37.8600	12	0	0 
02371.006	-0.5002	0.0898	0.7966	5.3711	-8.3618	36.4380	0.1813	-0.3790	178.8464	37.8300	11	0	0 
02371.006	-0.5002	0.0898	0.7966	5.3711	-8.3618	36.4380	0.2252	-0.3351	179.0222	37.8300	9	0	0 
02371.062	-0.5002	0.0898	0.7966	5.3711	-8.3618	36.4380	0.2692	-0.2856	179.1925	37.9200	9	0	0 
02371.062	-0.5002	0.0898	0.7966	5.3711	-8.3618	36.4380	0.3186	-0.2417	179.3683	37.9200	8	0	0 
02371.089	-0.5002	0.0898	0.7966	5.3711	-8.3618	36.4380	0.3625	-0.1923	179.5386	37.8600	7	0	0 
02371.089	-0.5002	0.0898	0.7966	5.3711	-8.3618	36.4380	0.4120	-0.1483	179.7144	37.8600	5	0	0 
02371.089	-0.5002	0.0898	0.7966	5.3711	-8.3618	36.4380	0.4559	-0.1044	179.8846	37.8900	4	0	0 
02371.105	-0.4487	0.0916	0.8225	3.8452	-10.9253	39.2456	0.4944	-0.0824	-179.9231	37.8900	3	0	0 
02371.105	-0.4487	0.0916	0.8225	3.8452	-10.9253	39.2456	0.5383	-0.0604	-179.7418	37.8900	2	0	0 
02371.105	-0.4487	0.0916	0.8225	3.8452	-10.9253	39.2456	0.5768	-0.0385	-179.5551	37.8900	1	0	0 
02371.134	-0.4487	0.0916	0.8225	3.8452	-10.9253	39.2456	0.6702	-0.0549	-179.6045	37.8800	0	0	0 
02371.134	-0.4487	0.0916	0.8225	3.8452	-10.9253	39.2456	0.5988	-0.0934	-179.0771	37.8800	-1	0	0 
02371.134	-0.4487	0.0916	0.8225	3.8452	-10.9253	39.2456	0.5273	-0.1318	-178.5498	37.9400	-3	0	0 
02371.182	-0.4487	0.0916	0.8225	3.8452	-10.9253	39.2456	0.4559	-0.1703	-178.0225	37.9400	-4	0	0 
02371.182	-0.4487	0.0916	0.8225	3.8452	-10.9253	39.2456	0.3845	-0.2032	-177.4951	37.8600	-5	0	0 
02371.182	-0.4539	0.1267	0.8792	1.9531	-12.9395	42.5415	0.3076	-0.2472	-176.9458	37.8600	-6	0	0 
02371.185	-0.4539	0.1267	0.8792	1.9531	-12.9395	42.5415	0.2307	-0.2856	-176.4020	37.8600	-7	0	0 
02371.185	-0.4539	0.1267	0.8792	1.9531	-12.9395	42.5415	0.1483	-0.3241	-175.8582	37.8700	-7	0	0 
02371.185	-0.4539	0.1267	0.8792	1.9531	-12.9395	42.5415	0.0714	-0.3625	-175.3143	37.8700	-9	0	0 
02371.196	-0.4539	0.1267	0.8792	1.9531	-12.9395	42.5415	0.0000	-0.4010	-174.7705	37.8200	-10	0	0 
02371.196	-0.4539	0.1267	0.8792	1.9531	-12.9395	42.5415	-0.0769	-0.4395	-174.2267	37.8200	-12	0	0 
02371.196	-0.4539	0.1267	0.8792	1.9531	-12.9395	42.5415	-0.1593	-0.4724	-173.6774	37.8600	-13	0	0 
02371.382	-0.4539	0.1267	0.8792	1.9531	-12.9395	42.5415	-0.2362	-0.5054	-173.1335	37.8600	-14	0	0 
02371.382	-0.4351	0.1985	1.0146	1.2817	-15.6250	46.0205	-0.3021	-0.5438	-172.5732	37.8600	-15	0	0 
02371.382	-0.4351	0.1985	1.0146	1.2817	-15.6250	46.0205	-0.3735	-0.5823	-172.0074	37.8600	-16	0	0 
02371.411	-0.4351	0.1985	1.0146	1.2817	-15.6250	46.0205	-0.4395	-0.6207	-171.4417	37.8500	-17	0	0 
02371.411	-0.4351	0.1985	1.0146	1.2817	-15.6250	46.0205	-0.5109	-0.6592	-170.8813	37.8500	-17	0	0 
02371.411	-0.4351	0.1985	1.0146	1.2817	-15.6250	46.0205	-0.5823	-0.6921	-170.3156	37.8300	-17	0	0 
02371.429	-0.4351	0.1985	1.0146	1.2817	-15.6250	46.0205	-0.6482	-0.7306	-169.7498	37.8300	-18	0	0 
02371.429	-0.4351	0.1985	1.0146	1.2817	-15.6250	46.0205	-0.7196	-0.7635	-169.1895	37.8400	-20	0	0 
02371.434	-0.4351	0.1985	1.0146	1.2817	-15.6250	46.0205	-0.7855	-0.7965	-168.6237	37.8400	-20	0	0 
02371.435	-0.4514	0.2510	1.0789	1.0376	-16.5405	48.3398	-0.8569	-0.8295	-168.0524	37.8500	-21	0	0 
02371.435	-0.4514	0.2510	1.0789	1.0376	-16.5405	48.3398	-0.9229	-0.8569	-167.4756	37.8500	-21	0	0 
02371.521	-0.4514	0.2510	1.0789	1.0376	-16.5405	48.3398	-0.9888	-0.8899	-166.9043	37.8500	-22	0	0 
02371.521	-0.4514	0.2510	1.0789	1.0376	-16.5405	48.3398	-1.0602	-0.9174	-166.3275	37.8100	-22	0	0 
02371.521	-0.4514	0.2510	1.0789	1.0376	-16.5405	48.3398	-1.1261	-0.9448	-165.7562	37.8100	-22	0	0 
02371.528	-0.4514	0.2510	1.0789	1.0376	-16.5405	48.3398	-1.1920	-0.9723	-165.1794	37.9000	-21	0	0 
02371.528	-0.4514	0.2510	1.0789	1.0376	-16.5405	48.3398	-1.2579	-0.9998	-164.6082	37.9000	-23	0	0 
02371.528	-0.4514	0.2510	1.0789	1.0376	-16.5405	48.3398	-1.3293	-1.0217	-164.0369	37.8600	-24	0	0 
02371.534	-0.4915	0.2908	1.0928	0.2441	-13.3667	48.0957	-1.4008	-1.0272	-163.4656	37.8600	-25	0	0 
02371.534	-0.4915	0.2908	1.0928	0.2441	-13.3667	48.0957	-1.4722	-1.0272	-162.8943	37.8900	-26	0	0 
02371.534	-0.4915	0.2908	1.0928	0.2441	-13.3667	48.0957	-1.5491	-1.0272	-162.3285	37.8900	-27	0	0 
02371.589	-0.4915	0.2908	1.0928	0.2441	-13.3667	48.0957	-1.6205	-1.0272	-161.7572	37.8000	-27	0	0 
02371.589	-0.4915	0.2908	1.0928	0.2441	-13.3667	48.0957	-1.6919	-1.0272	-161.1914	37.8000	-28	0	0 
02371.589	-0.4915	0.2908	1.0928	0.2441	-13.3667	48.0957	-1.7633	-1.0272	-160.6256	37.8400	-29	0	0 
02371.639	-0.4915	0.2908	1.0928	0.2441	-13.3667	48.0957	-1.8347	-1.0272	-160.0543	37.8400	-31	0	0 
02371.639	-0.4915	0.2908	1.0928	0.2441	-13.3667	48.0957	-1.9061	-1.0217	-159.4885	37.8700	-32	0	0 
02371.639	-0.5137	0.2949	1.0735	-0.6104	-7.6294	45.5933	-1.9830	-0.9888	-158.9337	37.8700	-34	0	0 
02371.678	-0.5137	0.2949	1.0735	-0.6104	-7.6294	45.5933	-2.0599	-0.9503	-158.3844	37.7900	-35	0	0 
02371.678	-0.5137	0.2949	1.0735	-0.6104	-7.6294	45.5933	-2.1368	-0.9174	-157.8351	37.7900	-36	0	0 
02371.678	-0.5137	0.2949	1.0735	-0.6104	-7.6294	45.5933	-2.2137	-0.8789	-157.2803	37.7900	-37	0	0 
02371.723	-0.5137	0.2949	1.0735	-0.6104	-7.6294	45.5933	-2.2906	-0.8405	-156.7310	37.8500	-37	0	0 
02371.723	-0.5137	0.2949	1.0735	-0.6104	-7.6294	45.5933	-2.3676	-0.8075	-156.1816	37.8500	-38	0	0 
02371.735	-0.5137	0.2949	1.0735	-0.6104	-7.6294	45.5933	-2.4390	-0.7635	-155.6323	37.8800	-39	0	0 
02371.735	-0.5137	0.2949	1.0735	-0.6104	-7.6294	45.5933	-2.5159	-0.7251	-155.0830	37.8800	-40	0	0 
02371.735	-0.5090	0.2832	1.0442	-1.3428	-2.1973	41.7480	-2.5928	-0.6592	-154.5557	37.8800	-40	0	0 
02371.769	-0.5090	0.2832	1.0442	-1.3428	-2.1973	41.7480	-2.6697	-0.5933	-154.0283	37.8800	-40	0	0 
02371.769	-0.5090	0.2832	1.0442	-1.3428	-2.1973	41.7480	-2.7466	-0.5219	-153.5010	37.9400	-41	0	0 
02371.769	-0.5090	0.2832	1.0442	-1.3428	-2.1973	41.7480	-2.8180	-0.4559	-152.9736	37.9400	-42	0	0 
02371.783	-0.5090	0.2832	1.0442	-1.3428	-2.1973	41.7480	-2.8949	-0.3845	-152.4463	37.8600	-43	0	0 
02371.783	-0.5090	0.2832	1.0442	-1.3428	-2.1973	41.7480	-2.9663	-0.3131	-151.9244	37.8600	-44	0	0 
02371.783	-0.5090	0.2832	1.0442	-1.3428	-2.1973	41.7480	-3.0377	-0.2417	-151.3971	37.8300	-45	0	0 
02371.837	-0.5090	0.2832	1.0442	-1.3428	-2.1973	41.7480	-3.1146	-0.1703	-150.8752	37.8300	-46	0	0 
02371.838	-0.5117	0.2793	1.0171	-1.5869	1.4038	37.2314	-3.1860	-0.0824	-150.3754	37.7900	-46	0	0 
02371.838	-0.5117	0.2793	1.0171	-1.5869	1.4038	37.2314	-3.2574	0.0000	-149.8755	37.7900	-46	0	0 
02371.894	-0.5117	0.2793	1.0171	-1.5869	1.4038	37.2314	-3.3289	0.0934	-149.3756	37.7900	-46	0	0 
02371.894	-0.5117	0.2793	1.0171	-1.5869	1.4038	37.2314	-3.4003	0.1868	-148.8812	37.8700	-46	0	0 
02371.894	-0.5117	0.2793	1.0171	-1.5869	1.4038	37.2314	-3.4717	0.2802	-148.3813	37.8700	-46	0	0 
02371.928	-0.5117	0.2793	1.0171	-1.5869	1.4038	37.2314	-3.5431	0.3735	-147.8870	37.8900	-47	0	0 
02371.928	-0.5117	0.2793	1.0171	-1.5869	1.4038	37.2314	-3.6090	0.4669	-147.3871	37.8900	-47	0	0 
02371.928	-0.5117	0.2793	1.0171	-1.5869	1.4038	37.2314	-3.6749	0.5603	-146.8927	37.8500	-47	0	0 
02371.957	-0.5313	0.2866	0.9980	-1.4038	3.0518	32.0435	-3.7463	0.6647	-146.4258	37.8500	-47	0	0 
02371.957	-0.5313	0.2866	0.9980	-1.4038	3.0518	32.0435	-3.8123	0.7690	-145.9589	37.8500	-47	0	0 
02371.957	-0.5313	0.2866	0.9980	-1.4038	3.0518	32.0435	-3.8782	0.8734	-145.4974	37.8500	-46	0	0 
02372.004	-0.5313	0.2866	0.9980	-1.4038	3.0518	32.0435	-3.9441	0.9778	-145.0305	37.8800	-46	0	0 
02372.004	-0.5313	0.2866	0.9980	-1.4038	3.0518	32.0435	-4.0100	1.0876	-144.5636	37.8800	-46	0	0 
02372.004	-0.5313	0.2866	0.9980	-1.4038	3.0518	32.0435	-4.0704	1.1920	-144.1022	37.8600	-46	0	0 
02372.006	-0.5313	0.2866	0.9980	-1.4038	3.0518	32.0435	-4.1364	1.3019	-143.6407	37.8600	-46	0	0 
02372.006	-0.5313	0.2866	0.9980	-1.4038	3.0518	32.0435	-4.1968	1.4063	-143.1738	37.7900	-46	0	0 
02372.032	-0.5579	0.3049	0.9875	-1.0376	3.1738	25.8179	-4.2572	1.5161	-142.7454	37.7900	-46	0	0 
02372.032	-0.5579	0.3049	0.9875	-1.0376	3.1738	25.8179	-4.3176	1.6260	-142.3169	37.9000	-46	0	0 
02372.032	-0.5579	0.3049	0.9875	-1.0376	3.1738	25.8179	-4.3781	1.7413	-141.8884	37.9000	-47	0	0 
02372.067	-0.5579	0.3049	0.9875	-1.0376	3.1738	25.8179	-4.4385	1.8512	-141.4655	37.9000	-47	0	0 
02372.067	-0.5579	0.3049	0.9875	-1.0376	3.1738	25.8179	-4.4989	1.9611	-141.0370	37.8500	-47	0	0 
02372.067	-0.5579	0.3049	0.9875	-1.0376	3.1738	25.8179	-4.5538	2.0764	-140.6085	37.8500	-46	0	0 
02372.190	-0.5579	0.3049	0.9875	-1.0376	3.1738	25.8179	-4.6088	2.1863	-140.1855	37.9100	-46	0	0 
02372.190	-0.5579	0.3049	0.9875	-1.0376	3.1738	25.8179	-4.6637	2.3016	-139.7626	37.9100	-45	0	0 
02372.190	-0.5737	0.3167	0.9844	-0.6104	2.4414	18.5547	-4.7186	2.4115	-139.3726	37.8700	-45	0	0 
02372.234	-0.5737	0.3167	0.9844	-0.6104	2.4414	18.5547	-4.7736	2.5159	-138.9880	37.8700	-44	0	0 
02372.234	-0.5737	0.3167	0.9844	-0.6104	2.4414	18.5547	-4.8285	2.6257	-138.6035	37.8700	-44	0	0 
02372.234	-0.5737	0.3167	0.9844	-0.6104	2.4414	18.5547	-4.8779	2.7356	-138.2135	37.8700	-44	0	0 
02372.248	-0.5737	0.3167	0.9844	-0.6104	2.4414	18.5547	-4.9329	2.8455	-137.8290	37.8700	-44	0	0 
02372.248	-0.5737	0.3167	0.9844	-0.6104	2.4414	18.5547	-4.9823	2.9608	-137.4445	37.8700	-44	0	0 
02372.248	-0.5737	0.3167	0.9844	-0.6104	2.4414	18.5547	-5.0317	3.0707	-137.0599	37.8500	-45	0	0 
02372.281	-0.5737	0.3167	0.9844	-0.6104	2.4414	18.5547	-5.0812	3.1805	-136.6809	37.8500	-45	0	0 
02372.281	-0.5251	0.2891	0.9861	-0.3662	1.4038	10.8032	-5.1251	3.2739	-136.3293	37.9100	-46	0	0 
02372.281	-0.5251	0.2891	0.9861	-0.3662	1.4038	10.8032	-5.1746	3.3728	-135.9833	37.9100	-46	0	0 
02372.324	-0.5251	0.2891	0.9861	-0.3662	1.4038	10.8032	-5.2185	3.4717	-135.6372	37.8500	-47	0	0 
02372.324	-0.5251	0.2891	0.9861	-0.3662	1.4038	10.8032	-5.2185	3.4717	-135.6372	37.8500	-49	0	0 
02372.324	-0.0278	0.0005	0.9983	0.0000	0.0000	0.3052	-4.9548	5.4657	-107.9132	37.8000	-48	0	0 
02372.364	-0.0278	0.0005	0.9983	0.0000	0.0000	0.3052	-4.9384	5.4712	-107.6331	37.8400	-46	0	0 
02372.364	-0.0278	0.0005	0.9983	0.0000	0.0000	0.3052	-4.9274	5.4822	-107.3584	37.8400	-46	0	0 
02372.364	-0.0278	0.0005	0.9983	0.0000	0.0000	0.3052	-4.9164	5.4877	-107.0837	37.7900	-45	0	0 
02372.411	-0.0278	0.0005	0.9983	0.0000	0.0000	0.3052	-4.9054	5.4932	-106.8091	37.7900	-45	0	0 
02372.411	-0.0278	0.0005	0.9983	0.0000	0.0000	0.3052	-4.8889	5.5042	-106.5344	37.8000	-45	0	0 
02372.411	-0.0283	0.0007	0.9983	0.0000	0.0000	0.1221	-4.8779	5.5096	-106.2653	37.8000	-45	0	0 
02372.413	-0.0283	0.0007	0.9983	0.0000	0.0000	0.1221	-4.8669	5.5206	-105.9906	37.8000	-46	0	0 
02372.413	-0.0283	0.0007	0.9983	0.0000	0.0000	0.1221	-4.8560	5.5261	-105.7214	37.8200	-45	0	0 
02372.422	-0.0283	0.0007	0.9983	0.0000	0.0000	0.1221	-4.8395	5.5316	-105.4468	37.8200	-45	0	0 
02372.422	-0.0283	0.0007	0.9983	0.0000	0.0000	0.1221	-4.8285	5.5371	-105.1776	37.8800	-45	0	0 
02372.422	-0.0283	0.0007	0.9983	0.0000	0.0000	0.1221	-4.8175	5.5481	-104.9084	37.8800	-45	0	0 
02372.461	-0.0283	0.0007	0.9983	0.0000	0.0000	0.1221	-4.8065	5.5536	-104.6393	37.8200	-47	0	0 
02372.461	-0.0283	0.0007	0.9983	0.0000	0.0000	0.1221	-4.7900	5.5591	-104.3701	37.8200	-48	0	0 
02372.461	-0.0264	0.0000	0.9985	0.0000	0.0000	0.0000	-4.7791	5.5646	-104.1010	37.8200	-48	0	0 
02372.466	-0.0264	0.0000	0.9985	0.0000	0.0000	0.0000	-4.7681	5.5756	-103.8318	37.8200	-49	0	0 
02372.466	-0.0264	0.0000	0.9985	0.0000	0.0000	0.0000	-4.7571	5.5811	-103.5681	37.8800	-49	0	0 
02372.466	-0.0264	0.0000	0.9985	0.0000	0.0000	0.0000	-4.7406	5.5865	-103.2990	37.8800	-49	0	0 
02372.472	-0.0264	0.0000	0.9985	0.0000	0.0000	0.0000	-4.7296	5.5920	-103.0353	37.8500	-49	0	0 
02372.472	-0.0264	0.0000	0.9985	0.0000	0.0000	0.0000	-4.7186	5.5975	-102.7661	37.8500	-49	0	0 
02372.472	-0.0264	0.0000	0.9985	0.0000	0.0000	0.0000	-4.7076	5.6030	-102.5024	37.8900	-49	0	0 
02372.480	-0.0264	0.0000	0.9985	0.0000	0.0000	0.0000	-4.6912	5.6085	-102.2388	37.8900	-49	0	0 
02372.480	-0.0237	-0.0015	0.9988	0.0000	0.0000	0.0000	-4.6802	5.6140	-101.9751	37.8900	-49	0	0 
02372.480	-0.0237	-0.0015	0.9988	0.0000	0.0000	0.0000	-4.6692	5.6195	-101.7114	37.8800	-48	0	0 
02372.483	-0.0237	-0.0015	0.9988	0.0000	0.0000	0.0000	-4.6527	5.6250	-101.4478	37.8800	-48	0	0 
02372.483	-0.0237	-0.0015	0.9988	0.0000	0.0000	0.0000	-4.6417	5.6305	-101.1841	37.8500	-49	0	0 
02372.483	-0.0237	-0.0015	0.9988	0.0000	0.0000	0.0000	-4.6307	5.6360	-100.9259	37.8500	-48	0	0 
02372.492	-0.0237	-0.0015	0.9988	0.0000	0.0000	0.0000	-4.6143	5.6415	-100.6622	37.7800	-48	0	0 
02372.492	-0.0237	-0.0015	0.9988	0.0000	0.0000	0.0000	-4.6033	5.6470	-100.4041	37.7800	-49	0	0 
02372.492	-0.0237	-0.0015	0.9988	0.0000	0.0000	0.0000	-4.5923	5.6525	-100.1404	37.7800	-49	0	0 
02372.497	-0.0210	-0.0029	0.9990	0.0000	0.0000	-0.0610	-4.5758	5.6580	-99.8822	37.7800	-50	0	0 
02372.497	-0.0210	-0.0029	0.9990	0.0000	0.0000	-0.0610	-4.5648	5.6580	-99.6240	37.8600	-50	0	0 
02372.497	-0.0210	-0.0029	0.9990	0.0000	0.0000	-0.0610	-4.5538	5.6635	-99.3658	37.8600	-51	0	0 
02372.504	-0.0210	-0.0029	0.9990	0.0000	0.0000	-0.0610	-4.5374	5.6689	-99.1077	37.7800	-52	0	0 
02372.504	-0.0210	-0.0029	0.9990	0.0000	0.0000	-0.0610	-4.5264	5.6744	-98.8495	37.7800	-53	0	0 
02372.506	-0.0210	-0.0029	0.9990	0.0000	0.0000	-0.0610	-4.5154	5.6744	-98.5913	37.8700	-53	0	0 
02372.506	-0.0210	-0.0029	0.9990	0.0000	0.0000	-0.0610	-4.4989	5.6799	-98.3331	37.8700	-52	0	0 
02372.506	-0.0210	-0.0029	0.9990	0.0000	0.0000	-0.0610	-4.4879	5.6854	-98.0804	37.8500	-51	0	0 
02372.513	-0.0193	-0.0037	0.9988	0.0000	0.0000	-0.0610	-4.4769	5.6854	-97.8223	37.8500	-50	0	0 
02372.513	-0.0193	-0.0037	0.9988	0.0000	0.0000	-0.0610	-4.4604	5.6909	-97.5696	37.8500	-50	0	0 
02372.513	-0.0193	-0.0037	0.9988	0.0000	0.0000	-0.0610	-4.4495	5.6964	-97.3114	37.9200	-50	0	0 
02372.518	-0.0193	-0.0037	0.9988	0.0000	0.0000	-0.0610	-4.4385	5.6964	-97.0587	37.9200	-50	0	0 
02372.518	-0.0193	-0.0037	0.9988	0.0000	0.0000	-0.0610	-4.4220	5.7019	-96.8060	37.9000	-51	0	0 
02372.518	-0.0193	-0.0037	0.9988	0.0000	0.0000	-0.0610	-4.4110	5.7019	-96.5533	37.9000	-50	0	0 
02372.525	-0.0193	-0.0037	0.9988	0.0000	0.0000	-0.0610	-4.4000	5.7074	-96.3007	37.8300	-49	0	0 
02372.525 
02372.525	-0.0195	-0.0042	0.9983	0.0000	0.0000	0.0000	-3.2794	5.7623	-74.6411	37.7900	-47	0	0 
02372.527	-0.0195	-0.0042	0.9983	0.0000	0.0000	0.0000	-3.2684	5.7623	-74.4379	37.8500	-46	0	0 
02372.527	-0.0195	-0.0042	0.9983	0.0000	0.0000	0.0000	-3.2574	5.7568	-74.2346	37.8500	-47	0	0 
02372.527	-0.0195	-0.0039	0.9983	0.0000	0.0000	0.0000	-3.2465	5.7568	-74.0314	37.8600	-47	0	0 
02372.531	-0.0195	-0.0039	0.9983	0.0000	0.0000	0.0000	-3.2355	5.7568	-73.8281	37.8600	-48	0	0 
02372.531	-0.0195	-0.0039	0.9983	0.0000	0.0000	0.0000	-3.2245	5.7568	-73.6249	37.8600	-48	0	0 
02372.531	-0.0195	-0.0039	0.9983	0.0000	0.0000	0.0000	-3.2135	5.7513	-73.4271	37.8600	-49	0	0 
02372.542	-0.0195	-0.0039	0.9983	0.0000	0.0000	0.0000	-3.2080	5.7513	-73.2239	37.8200	-49	0	0 
02372.542	-0.0195	-0.0039	0.9983	0.0000	0.0000	0.0000	-3.1970	5.7513	-73.0261	37.8200	-49	0	0 
02372.542	-0.0195	-0.0039	0.9983	0.0000	0.0000	0.0000	-3.1860	5.7458	-72.8229	37.8600	-49	0	0 
02372.547	-0.0195	-0.0039	0.9983	0.0000	0.0000	0.0000	-3.1750	5.7458	-72.6251	37.8600	-49	0	0 
02372.547	-0.0198	-0.0039	0.9983	0.0000	0.0000	0.0000	-3.1641	5.7458	-72.4274	37.7800	-49	0	0 
02372.547	-0.0198	-0.0039	0.9983	0.0000	0.0000	0.0000	-3.1531	5.7404	-72.2296	37.7800	-48	0	0 
02372.549	-0.0198	-0.0039	0.9983	0.0000	0.0000	0.0000	-3.1421	5.7404	-72.0319	37.8500	-48	0	0 
02372.549	-0.0198	-0.0039	0.9983	0.0000	0.0000	0.0000	-3.1366	5.7404	-71.8341	37.8500	-48	0	0 
02372.561	-0.0198	-0.0039	0.9983	0.0000	0.0000	0.0000	-3.1256	5.7349	-71.6364	37.8500	-48	0	0 
02372.561	-0.0198	-0.0039	0.9983	0.0000	0.0000	0.0000	-3.1146	5.7349	-71.4386	37.8400	-48	0	0 
02372.561	-0.0198	-0.0039	0.9983	0.0000	0.0000	0.0000	-3.1036	5.7349	-71.2463	37.8400	-48	0	0 
02372.587	-0.0198	-0.0039	0.9983	0.0000	0.0000	0.0000	-3.0927	5.7294	-71.0486	37.8700	-48	0	0 
02372.587	-0.0198	-0.0039	0.9983	0.0000	0.0000	0.0000	-3.0817	5.7294	-70.8563	37.8700	-48	0	0 
02372.587	-0.0198	-0.0039	0.9983	0.0000	0.0000	0.0000	-3.0762	5.7294	-70.6586	37.8700	-48	0	0 
02372.593	-0.0198	-0.0039	0.9983	0.0000	0.0000	0.0000	-3.0652	5.7239	-70.4663	37.8700	-48	0	0 
02372.593	-0.0198	-0.0039	0.9983	0.0000	0.0000	0.0000	-3.0542	5.7239	-70.2740	37.8800	-47	0	0 
02372.593	-0.0198	-0.0039	0.9983	0.0000	0.0000	0.0000	-3.0432	5.7184	-70.0818	37.8800	-46	0	0 
02372.593	-0.0198	-0.0039	0.9983	0.0000	0.0000	0.0000	-3.0377	5.7184	-69.8895	37.8900	-46	0	0 
02372.593	-0.0198	-0.0039	0.9983	0.0000	0.0000	0.0000	-3.0267	5.7184	-69.6973	37.8900	-46	0	0 
02372.593	-0.0198	-0.0039	0.9983	0.0000	0.0000	0.0000	-3.0157	5.7129	-69.5050	37.8500	-47	0	0 
02372.593	-0.0200	-0.0039	0.9985	0.0000	0.0000	0.0000	-3.0048	5.7129	-69.3127	37.8500	-47	0	0 
02372.593	-0.0200	-0.0039	0.9985	0.0000	0.0000	0.0000	-2.9938	5.7129	-69.1205	37.8800	-47	0	0 
02372.593	-0.0200	-0.0039	0.9985	0.0000	0.0000	0.0000	-2.9883	5.7074	-68.9337	37.8800	-46	0	0 
02372.595	-0.0200	-0.0039	0.9985	0.0000	0.0000	0.0000	-2.9773	5.7074	-68.7415	37.8000	-46	0	0 
02372.595	-0.0200	-0.0039	0.9985	0.0000	0.0000	0.0000	-2.9663	5.7019	-68.5547	37.8000	-46	0	0 
02372.595	-0.0200	-0.0039	0.9985	0.0000	0.0000	0.0000	-2.9553	5.7019	-68.3679	37.8000	-45	0	0 
02372.597	-0.0200	-0.0039	0.9985	0.0000	0.0000	0.0000	-2.9498	5.6964	-68.1757	37.9000	-46	0	0 
02372.597	-0.0200	-0.0039	0.9985	0.0000	0.0000	0.0000	-2.9388	5.6964	-67.9889	37.9000	-46	0	0 
02372.597	-0.0200	-0.0039	0.9985	0.0000	0.0000	0.0000	-2.9279	5.6964	-67.8021	37.9000	-46	0	0 
02372.602	-0.0200	-0.0039	0.9985	0.0000	0.0000	0.0000	-2.9224	5.6909	-67.6154	37.9000	-46	0	0 
02372.602	-0.0200	-0.0039	0.9985	0.0000	0.0000	0.0000	-2.9114	5.6909	-67.4286	37.8900	-47	0	0 
02372.602	-0.0200	-0.0039	0.9985	0.0000	0.0000	0.0000	-2.9004	5.6854	-67.2473	37.8900	-47	0	0 
02372.607	-0.0200	-0.0039	0.9985	0.0000	0.0000	0.0000	-2.8949	5.6854	-67.0605	37.8000	-48	0	0 
02372.607	-0.0200	-0.0039	0.9985	0.0000	0.0000	0.0000	-2.8839	5.6799	-66.8738	37.8000	-48	0	0 
02372.620	-0.0200	-0.0039	0.9985	0.0000	0.0000	0.0000	-2.8729	5.6799	-66.6925	37.8500	-47	0	0 
02372.620	-0.0200	-0.0039	0.9985	0.0000	0.0000	0.0000	-2.8619	5.6744	-66.5057	37.8500	-46	0	0 
02372.620	-0.0200	-0.0039	0.9985	0.0000	0.0000	0.0000	-2.8564	5.6744	-66.3245	37.8700	-46	0	0 
02372.624	-0.0200	-0.0039	0.9985	0.0000	0.0000	0.0000	-2.8455	5.6689	-66.1377	37.8700	-46	0	0 
02372.624	-0.0200	-0.0039	0.9985	0.0000	0.0000	0.0000	-2.8400	5.6689	-65.9564	37.8500	-46	0	0 
02372.624	-0.0200	-0.0039	0.9985	0.0000	0.0000	0.0000	-2.8290	5.6689	-65.7751	37.8500	-46	0	0 
02372.638	-0.0200	-0.0039	0.9985	0.0000	0.0000	0.0000	-2.8180	5.6635	-65.5939	37.7700	-47	0	0 
02372.638	-0.0200	-0.0039	0.9985	0.0000	0.0000	0.0000	-2.8125	5.6635	-65.4126	37.7700	-48	0	0 
02372.638	-0.0200	-0.0039	0.9985	0.0000	0.0000	0.0000	-2.8015	5.6580	-65.2313	37.7700	-49	0	0 
02372.642	-0.0200	-0.0039	0.9985	0.0000	0.0000	0.0000	-2.7905	5.6580	-65.0555	37.8200	-50	0	0 
02372.642	-0.0200	-0.0039	0.9985	0.0000	0.0000	0.0000	-2.7850	5.6525	-64.8743	37.8200	-50	0	0 
02372.642	-0.0200	-0.0039	0.9985	0.0000	0.0000	0.0000	-2.7740	5.6525	-64.6930	37.7800	-50	0	0 
02372.646	-0.0200	-0.0039	0.9985	0.0000	0.0000	0.0000	-2.7631	5.6470	-64.5172	37.7800	-50	0	0 
02372.646	-0.0200	-0.0039	0.9985	0.0000	0.0000	0.0000	-2.7576	5.6470	-64.3359	37.8800	-50	0	0 
02372.646	-0.0200	-0.0039	0.9985	0.0000	0.0000	0.0000	-2.7466	5.6415	-64.1602	37.8800	-50	0	0 
02372.656	-0.0200	-0.0039	0.9985	0.0000	0.0000	0.0000	-2.7411	5.6415	-63.9844	37.8100	-50	0	0 
02372.656	-0.0200	-0.0039	0.9985	0.0000	0.0000	0.0000	-2.7301	5.6360	-63.8031	37.8100	-50	0	0 
02372.656	-0.0200	-0.0039	0.9985	0.0000	0.0000	0.0000	-2.7191	5.6360	-63.6273	37.8300	-50	0	0 
02372.661	-0.0198	-0.0039	0.9985	0.0000	0.0000	0.0000	-2.7136	5.6305	-63.4515	37.8300	-50	0	0 
02372.661	-0.0198	-0.0039	0.9985	0.0000	0.0000	0.0000	-2.7026	5.6250	-63.2758	37.8200	-49	0	0 
02372.661	-0.0198	-0.0039	0.9985	0.0000	0.0000	0.0000	-2.6971	5.6250	-63.1000	37.8200	-49	0	0 
02372.668	-0.0198	-0.0039	0.9985	0.0000	0.0000	0.0000	-2.6862	5.6195	-62.9297	37.8600	-49	0	0 
02372.668	-0.0198	-0.0039	0.9985	0.0000	0.0000	0.0000	-2.6807	5.6195	-62.7539	37.8600	-49	0	0 
02372.668	-0.0198	-0.0039	0.9985	0.0000	0.0000	0.0000	-2.6697	5.6140	-62.5781	37.8100	-49	0	0 
02372.676	-0.0198	-0.0039	0.9985	0.0000	0.0000	0.0000	-2.6642	5.6140	-62.4078	37.8100	-49	0	0 
02372.676	-0.0198	-0.0039	0.9985	0.0000	0.0000	0.0000	-2.6532	5.6085	-62.2321	37.8100	-49	0	0 
02372.678	-0.0198	-0.0037	0.9983	0.0000	0.0000	0.0000	-2.6422	5.6085	-62.0618	37.8400	-49	0	0 
02372.678	-0.0198	-0.0037	0.9983	0.0000	0.0000	0.0000	-2.6367	5.6030	-61.8915	37.8400	-49	0	0 
02372.678	-0.0198	-0.0037	0.9983	0.0000	0.0000	0.0000	-2.6257	5.5975	-61.7157	37.9100	-49	0	0 
02372.691	-0.0198	-0.0037	0.9983	0.0000	0.0000	0.0000	-2.6202	5.5975	-61.5454	37.9100	-48	0	0 
02372.691	-0.0198	-0.0037	0.9983	0.0000	0.0000	0.0000	-2.6093	5.5920	-61.3751	37.8700	-49	0	0 
02372.691	-0.0198	-0.0037	0.9983	0.0000	0.0000	0.0000	-2.6038	5.5920	-61.2048	37.8700	-50	0	0 
02372.699	-0.0198	-0.0037	0.9983	0.0000	0.0000	0.0000	-2.5928	5.5865	-61.0345	37.8800	-50	0	0 
02372.699	-0.0198	-0.0037	0.9983	0.0000	0.0000	0.0000	-2.5873	5.5865	-60.8698	37.8800	-50	0	0 
02372.699	-0.0198	-0.0034	0.9980	0.0000	0.0000	0.0000	-2.5763	5.5811	-60.6995	37.8300	-50	0	0 
02372.704	-0.0198	-0.0034	0.9980	0.0000	0.0000	0.0000	-2.5708	5.5756	-60.5292	37.8300	-50	0	0 
02372.704	-0.0198	-0.0034	0.9980	0.0000	0.0000	0.0000	-2.5598	5.5756	-60.3644	37.8900	-49	0	0 
02372.704	-0.0198	-0.0034	0.9980	0.0000	0.0000	0.0000	-2.5543	5.5701	-60.1941	37.8900	-49	0	0 
02372.708	-0.0198	-0.0034	0.9980	0.0000	0.0000	0.0000	-2.5433	5.5701	-60.0293	37.9100	-49	0	0 
02372.708	-0.0198	-0.0034	0.9980	0.0000	0.0000	0.0000	-2.5378	5.5646	-59.8645	37.9100	-48	0	0 
02372.708	-0.0198	-0.0034	0.9980	0.0000	0.0000	0.0000	-2.5269	5.5646	-59.6942	37.9100	-48	0	0 
02372.721	-0.0198	-0.0034	0.9980	0.0000	0.0000	0.0000	-2.5214	5.5591	-59.5294	37.8800	-47	0	0 
02372.722	-0.0198	-0.0034	0.9980	0.0000	0.0000	0.0000	-2.5159	5.5536	-59.3646	37.8800	-46	0	0 
02372.722	-0.0198	-0.0034	0.9980	0.0000	0.0000	0.0000	-2.5049	5.5536	-59.1998	37.8000	-47	0	0 
02372.728	-0.0198	-0.0034	0.9980	0.0000	0.0000	0.0000	-2.4994	5.5481	-59.0350	37.8000	-47	0	0 
02372.728	-0.0198	-0.0034	0.9980	0.0000	0.0000	0.0000	-2.4884	5.5481	-58.8702	37.8700	-47	0	0 
02372.728	-0.0198	-0.0034	0.9980	0.0000	0.0000	0.0000	-2.4829	5.5426	-58.7109	37.8700	-48	0	0 
02372.732	-0.0198	-0.0034	0.9980	0.0000	0.0000	0.0000	-2.4719	5.5371	-58.5461	37.8600	-48	0	0 
02372.732	-0.0198	-0.0034	0.9980	0.0000	0.0000	0.0000	-2.4664	5.5371	-58.3813	37.8600	-48	0	0 
02372.732	-0.0198	-0.0034	0.9980	0.0000	0.0000	0.0000	-2.4554	5.5316	-58.2220	37.8200	-49	0	0 
02372.741	-0.0195	-0.0037	0.9978	0.0000	0.0000	0.0000	-2.4500	5.5261	-58.0573	37.8200	-49	0	0 
02372.741	-0.0195	-0.0037	0.9978	0.0000	0.0000	0.0000	-2.4445	5.5261	-57.8979	37.8500	-49	0	0 
02372.746	-0.0195	-0.0037	0.9978	0.0000	0.0000	0.0000	-2.4335	5.5206	-57.7386	37.8500	-49	0	0 
02372.746	-0.0195	-0.0037	0.9978	0.0000	0.0000	0.0000	-2.4280	5.5206	-57.5739	37.8800	-49	0	0 
02372.746	-0.0195	-0.0037	0.9978	0.0000	0.0000	0.0000	-2.4225	5.5151	-57.4146	37.8800	-49	0	0 
02372.761	-0.0195	-0.0037	0.9978	0.0000	0.0000	0.0000	-2.4115	5.5096	-57.2552	37.9000	-49	0	0 
02372.761	-0.0195	-0.0037	0.9978	0.0000	0.0000	0.0000	-2.4060	5.5096	-57.0959	37.9000	-49	0	0 
02372.761	-0.0195	-0.0037	0.9978	0.0000	0.0000	0.0000	-2.3950	5.5042	-56.9366	37.9000	-48	0	0 
02372.770	-0.0195	-0.0039	0.9980	0.0000	0.0000	0.0000	-2.3895	5.4987	-56.7828	37.8200	-48	0	0 
02372.770	-0.0195	-0.0039	0.9980	0.0000	0.0000	0.0000	-2.3840	5.4987	-56.6235	37.8200	-48	0	0 
02372.770	-0.0195	-0.0039	0.9980	0.0000	0.0000	0.0000	-2.3730	5.4932	-56.4642	37.7700	-48	0	0 
02372.785	-0.0195	-0.0039	0.9980	0.0000	0.0000	0.0000	-2.3676	5.4877	-56.3104	37.7700	-48	0	0 
02372.785	-0.0195	-0.0039	0.9980	0.0000	0.0000	0.0000	-2.3621	5.4877	-56.1511	37.8300	-48	0	0 
02372.785	-0.0195	-0.0039	0.9980	0.0000	0.0000	0.0000	-2.3511	5.4822	-55.9973	37.8300	-48	0	0 
02372.816	-0.0195	-0.0039	0.9980	0.0000	0.0000	0.0000	-2.3456	5.4767	-55.8380	37.8600	-48	0	0 
02372.816	-0.0195	-0.0039	0.9980	0.0000	0.0000	0.0000	-2.3401	5.4767	-55.6842	37.8600	-48	0	0 
02372.816	-0.0193	-0.0042	0.9980	0.0000	0.0000	0.0000	-2.3291	5.4712	-55.5304	37.8500	-49	0	0 
02372.823	-0.0193	-0.0042	0.9980	0.0000	0.0000	0.0000	-2.3236	5.4657	-55.3766	37.8500	-48	0	0 
02372.823	-0.0193	-0.0042	0.9980	0.0000	0.0000	0.0000	-2.3181	5.4657	-55.2228	37.9200	-48	0	0 
02372.823	-0.0193	-0.0042	0.9980	0.0000	0.0000	0.0000	-2.3071	5.4602	-55.0690	37.9200	-48	0	0 
02372.825	-0.0193	-0.0042	0.9980	0.0000	0.0000	0.0000	-2.3016	5.4547	-54.9152	37.8200	-47	0	0 
02372.825	-0.0193	-0.0042	0.9980	0.0000	0.0000	0.0000	-2.2961	5.4547	-54.7614	37.8200	-47	0	0 
02372.825	-0.0193	-0.0042	0.9980	0.0000	0.0000	0.0000	-2.2906	5.4492	-54.6075	37.8200	-48	0	0 
02372.846	-0.0193	-0.0042	0.9980	0.0000	0.0000	0.0000	-2.2797	5.4437	-54.4537	37.8200	-48	0	0 
02372.846	-0.0193	-0.0042	0.9983	0.0000	0.0000	0.0000	-2.2742	5.4437	-54.3054	37.8200	-48	0	0 
02372.874	-0.0193	-0.0042	0.9983	0.0000	0.0000	0.0000	-2.2687	5.4382	-54.1516	37.8800	-48	0	0 
02372.874	-0.0193	-0.0042	0.9983	0.0000	0.0000	0.0000	-2.2632	5.4327	-54.0033	37.8800	-49	0	0 
02372.874	-0.0193	-0.0042	0.9983	0.0000	0.0000	0.0000	-2.2522	5.4327	-53.8495	37.8000	-49	0	0 
02372.887	-0.0193	-0.0042	0.9983	0.0000	0.0000	0.0000	-2.2467	5.4272	-53.7012	37.8000	-50	0	0 
02372.887	-0.0193	-0.0042	0.9983	0.0000	0.0000	0.0000	-2.2412	5.4218	-53.5529	37.8700	-49	0	0 
02372.887	-0.0193	-0.0042	0.9983	0.0000	0.0000	0.0000	-2.2357	5.4163	-53.4045	37.8700	-48	0	0 
02372.908	-0.0193	-0.0042	0.9983	0.0000	0.0000	0.0000	-2.2247	5.4163	-53.2562	37.8300	-49	0	0 
02372.908	-0.0193	-0.0042	0.9985	0.0000	0.0000	0.0000	-2.2192	5.4108	-53.1079	37.8300	-49	0	0 
02372.908	-0.0193	-0.0042	0.9985	0.0000	0.0000	0.0000	-2.2137	5.4053	-52.9596	37.8700	-50	0	0 
02372.919	-0.0193	-0.0042	0.9985	0.0000	0.0000	0.0000	-2.2083	5.4053	-52.8113	37.8700	-50	0	0 
02372.919	-0.0193	-0.0042	0.9985	0.0000	0.0000	0.0000	-2.1973	5.3998	-52.6630	37.8400	-51	0	0 
02372.919	-0.0193	-0.0042	0.9985	0.0000	0.0000	0.0000	-2.1918	5.3943	-52.5146	37.8400	-52	0	0 
02372.946	-0.0193	-0.0042	0.9985	0.0000	0.0000	0.0000	-2.1863	5.3943	-52.3718	37.8400	-52	0	0 
02372.946	-0.0193	-0.0042	0.9985	0.0000	0.0000	0.0000	-2.1808	5.3888	-52.2235	37.8400	-53	0	0 
02372.946	-0.0193	-0.0042	0.9985	0.0000	0.0000	0.0000	-2.1753	5.3833	-52.0807	37.8500	-53	0	0 
02372.996	-0.0193	-0.0039	0.9988	0.0000	0.0000	0.0000	-2.1643	5.3778	-51.9324	37.8500	-53	0	0 
02372.996	-0.0193	-0.0039	0.9988	0.0000	0.0000	0.0000	-2.1588	5.3778	-51.7896	37.8500	-53	0	0 
02372.996	-0.0193	-0.0039	0.9988	0.0000	0.0000	0.0000	-2.1533	5.3723	-51.6467	37.8300	-52	0	0 
02372.998	-0.0193	-0.0039	0.9988	0.0000	0.0000	0.0000	-2.1478	5.3668	-51.4984	37.8300	-51	0	0 
02372.998	-0.0193	-0.0039	0.9988	0.0000	0.0000	0.0000	-2.1423	5.3668	-51.3556	37.8600	-51	0	0 
02372.998	-0.0193	-0.0039	0.9988	0.0000	0.0000	0.0000	-2.1368	5.3613	-51.2128	37.8600	-51	0	0 
02373.003	-0.0193	-0.0039	0.9988	0.0000	0.0000	0.0000	-2.1259	5.3558	-51.0699	37.8100	-51	0	0 
02373.003	-0.0193	-0.0039	0.9988	0.0000	0.0000	0.0000	-2.1204	5.3503	-50.9271	37.8100	-51	0	0 
02373.003	-0.0193	-0.0039	0.9988	0.0000	0.0000	0.0000	-2.1149	5.3503	-50.7843	37.8700	-51	0	0 
02373.013	-0.0193	-0.0039	0.9988	0.0000	0.0000	0.0000	-2.1094	5.3448	-50.6470	37.8700	-51	0	0 
02373.013	-0.0193	-0.0039	0.9988	0.0000	0.0000	0.0000	-2.1039	5.3394	-50.5042	37.8100	-51	0	0 
02373.033	-0.0193	-0.0039	0.9988	0.0000	0.0000	0.0000	-2.0984	5.3394	-50.3613	37.8100	-51	0	0 
02373.033	-0.0193	-0.0039	0.9988	0.0000	0.0000	0.0000	-2.0874	5.3339	-50.2240	37.8300	-51	0	0 
02373.033	-0.0193	-0.0039	0.9988	0.0000	0.0000	0.0000	-2.0819	5.3284	-50.0812	37.8300	-51	0	0 
02373.063	-0.0193	-0.0039	0.9988	0.0000	0.0000	0.0000	-2.0764	5.3229	-49.9438	37.8300	-50	0	0 
02373.063	-0.0193	-0.0039	0.9988	0.0000	0.0000	0.0000	-2.0709	5.3229	-49.8010	37.8300	-50	0	0 
02373.063	-0.0193	-0.0037	0.9985	0.0000	0.0000	0.0000	-2.0654	5.3174	-49.6637	37.8300	-49	0	0 
02373.102	-0.0193	-0.0037	0.9985	0.0000	0.0000	0.0000	-2.0599	5.3119	-49.5264	37.8500	-48	0	0 
02373.102	-0.0193	-0.0037	0.9985	0.0000	0.0000	0.0000	-2.0544	5.3119	-49.3890	37.8500	-49	0	0 
02373.102	-0.0193	-0.0037	0.9985	0.0000	0.0000	0.0000	-2.0490	5.3064	-49.2517	37.7800	-49	0	0 
02373.118	-0.0193	-0.0037	0.9985	0.0000	0.0000	0.0000	-2.0435	5.3009	-49.1144	37.7800	-49	0	0 
02373.118	-0.0193	-0.0037	0.9985	0.0000	0.0000	0.0000	-2.0325	5.2954	-48.9771	37.8900	-50	0	0 
02373.118	-0.0193	-0.0037	0.9985	0.0000	0.0000	0.0000	-2.0270	5.2954	-48.8397	37.8900	-50	0	0 
02373.131	-0.0193	-0.0037	0.9985	0.0000	0.0000	0.0000	-2.0215	5.2899	-48.7024	37.8800	-50	0	0 
02373.131	-0.0193	-0.0034	0.9985	0.0000	0.0000	0.0000	-2.0160	5.2844	-48.5651	37.8800	-50	0	0 
02373.131	-0.0193	-0.0034	0.9985	0.0000	0.0000	0.0000	-2.0105	5.2844	-48.4332	37.8800	-50	0	0 
02373.154	-0.0193	-0.0034	0.9985	0.0000	0.0000	0.0000	-2.0050	5.2789	-48.2959	37.8800	-51	0	0 
02373.154	-0.0193	-0.0034	0.9985	0.0000	0.0000	0.0000	-1.9995	5.2734	-48.1586	37.8600	-51	0	0 
02373.154	-0.0193	-0.0034	0.9985	0.0000	0.0000	0.0000	-1.9940	5.2679	-48.0267	37.8600	-52	0	0 
02373.168	-0.0193	-0.0034	0.9985	0.0000	0.0000	0.0000	-1.9885	5.2679	-47.8949	37.8100	-52	0	0 
02373.168	-0.0193	-0.0034	0.9985	0.0000	0.0000	0.0000	-1.9830	5.2625	-47.7576	37.8100	-51	0	0 
02373.168	-0.0193	-0.0034	0.9985	0.0000	0.0000	0.0000	-1.9775	5.2570	-47.6257	37.8100	-50	0	0 
02373.183	-0.0193	-0.0032	0.9985	0.0000	0.0000	0.0000	-1.9720	5.2570	-47.4939	37.8100	-50	0	0 
02373.183	-0.0193	-0.0032	0.9985	0.0000	0.0000	0.0000	-1.9666	5.2515	-47.3621	37.8100	-50	0	0 
02373.183	-0.0193	-0.0032	0.9985	0.0000	0.0000	0.0000	-1.9556	5.2460	-47.2302	37.8800	-51	0	0 
02373.195	-0.0193	-0.0032	0.9985	0.0000	0.0000	0.0000	-1.9501	5.2405	-47.0984	37.8800	-52	0	0 
02373.195	-0.0193	-0.0032	0.9985	0.0000	0.0000	0.0000	-1.9446	5.2405	-46.9666	37.8200	-52	0	0 
02373.205	-0.0193	-0.0032	0.9985	0.0000	0.0000	0.0000	-1.9391	5.2350	-46.8347	37.8200	-52	0	0 
02373.205	-0.0193	-0.0032	0.9985	0.0000	0.0000	0.0000	-1.9336	5.2295	-46.7029	37.8100	-52	0	0 
02373.205	-0.0193	-0.0032	0.9985	0.0000	0.0000	0.0000	-1.9281	5.2240	-46.5710	37.8100	-51	0	0 
02373.230	-0.0193	-0.0032	0.9985	0.0000	0.0000	0.0000	-1.9226	5.2240	-46.4447	37.8100	-52	0	0 
02373.230	-0.0193	-0.0032	0.9985	0.0000	0.0000	0.0000	-1.9171	5.2185	-46.3129	37.8100	-53	0	0 
02373.230	-0.0193	-0.0032	0.9985	0.0000	0.0000	0.0000	-1.9116	5.2130	-46.1865	37.8500	-53	0	0 
02373.236	-0.0193	-0.0032	0.9985	0.0000	0.0000	0.0000	-1.9061	5.2130	-46.0547	37.8500	-53	0	0 
02373.236	-0.0193	-0.0032	0.9985	0.0000	0.0000	0.0000	-1.9006	5.2075	-45.9283	37.8100	-52	0	0 
02373.236	-0.0193	-0.0032	0.9985	0.0000	0.0000	0.0000	-1.8951	5.2020	-45.7965	37.8100	-52	0	0 
02373.238	-0.0193	-0.0032	0.9985	0.0000	0.0000	0.0000	-1.8896	5.1965	-45.6702	37.9100	-52	0	0 
02373.238	-0.0193	-0.0032	0.9985	0.0000	0.0000	0.0000	-1.8842	5.1965	-45.5438	37.9100	-52	0	0 
02373.238	-0.0195	-0.0034	0.9985	0.0000	0.0000	0.0000	-1.8787	5.1910	-45.4175	37.8700	-52	0	0 
02373.245	-0.0195	-0.0034	0.9985	0.0000	0.0000	0.0000	-1.8732	5.1855	-45.2911	37.8700	-52	0	0 
02373.245	-0.0195	-0.0034	0.9985	0.0000	0.0000	0.0000	-1.8677	5.1855	-45.1648	37.8700	-51	0	0 
02373.245	-0.0195	-0.0034	0.9985	0.0000	0.0000	0.0000	-1.8622	5.1801	-45.0385	37.8200	-51	0	0 
02373.253	-0.0195	-0.0034	0.9985	0.0000	0.0000	0.0000	-1.8567	5.1746	-44.9121	37.8200	-51	0	0 
02373.253	-0.0195	-0.0034	0.9985	0.0000	0.0000	0.0000	-1.8512	5.1691	-44.7858	37.8200	-51	0	0 
02373.253	-0.0195	-0.0034	0.9985	0.0000	0.0000	0.0000	-1.8457	5.1691	-44.6594	37.8200	-50	0	0 
02373.258	-0.0195	-0.0034	0.9985	0.0000	0.0000	0.0000	-1.8457	5.1636	-44.5386	37.8400	-50	0	0 
02373.258	-0.0195	-0.0037	0.9988	0.0000	0.0000	0.0000	-1.8402	5.1581	-44.4122	37.8400	-50	0	0 
02373.258	-0.0195	-0.0037	0.9988	0.0000	0.0000	0.0000	-1.8347	5.1581	-44.2859	37.8300	-51	0	0 
02373.269	-0.0195	-0.0037	0.9988	0.0000	0.0000	0.0000	-1.8292	5.1526	-44.1650	37.8300	-51	0	0 
02373.269	-0.0195	-0.0037	0.9988	0.0000	0.0000	0.0000	-1.8237	5.1471	-44.0442	37.8800	-50	0	0 
02373.269	-0.0195	-0.0037	0.9988	0.0000	0.0000	0.0000	-1.8182	5.1416	-43.9178	37.8800	-49	0	0 
02373.279	-0.0195	-0.0037	0.9988	0.0000	0.0000	0.0000	-1.8127	5.1416	-43.7970	37.8600	-49	0	0 
02373.279	-0.0195	-0.0037	0.9988	0.0000	0.0000	0.0000	-1.8073	5.1361	-43.6761	37.8600	-49	0	0 
02373.281	-0.0195	-0.0037	0.9988	0.0000	0.0000	0.0000	-1.8018	5.1306	-43.5498	37.8000	-49	0	0 
02373.281	-0.0198	-0.0039	0.9988	0.0000	0.0000	0.0000	-1.7963	5.1251	-43.4290	37.8000	-49	0	0 
02373.281	-0.0198	-0.0039	0.9988	0.0000	0.0000	0.0000	-1.7908	5.1251	-43.3081	37.8800	-49	0	0 
02373.285	-0.0198	-0.0039	0.9988	0.0000	0.0000	0.0000	-1.7853	5.1196	-43.1873	37.8800	-49	0	0 
02373.285	-0.0198	-0.0039	0.9988	0.0000	0.0000	0.0000	-1.7853	5.1141	-43.0664	37.8800	-49	0	0 
02373.285	-0.0198	-0.0039	0.9988	0.0000	0.0000	0.0000	-1.7798	5.1141	-42.9456	37.8200	-49	0	0 
02373.289	-0.0198	-0.0039	0.9988	0.0000	0.0000	0.0000	-1.7743	5.1086	-42.8302	37.8200	-49	0	0 
02373.289	-0.0198	-0.0039	0.9988	0.0000	0.0000	0.0000	-1.7688	5.1031	-42.7094	37.8300	-49	0	0 
02373.289	-0.0198	-0.0039	0.9988	0.0000	0.0000	0.0000	-1.7633	5.0977	-42.5885	37.8300	-49	0	0 
02373.293	-0.0198	-0.0042	0.9988	0.0000	0.0000	0.0000	-1.7578	5.0977	-42.4731	37.8300	-49	0	0 
02373.293	-0.0198	-0.0042	0.9988	0.0000	0.0000	0.0000	-1.7523	5.0922	-42.3523	37.8300	-49	0	0 
02373.293	-0.0198	-0.0042	0.9988	0.0000	0.0000	0.0000	-1.7523	5.0867	-42.2369	37.8700	-49	0	0 
02373.304	-0.0198	-0.0042	0.9988	0.0000	0.0000	0.0000	-1.7468	5.0867	-42.1161	37.8700	-49	0	0 
02373.304	-0.0198	-0.0042	0.9988	0.0000	0.0000	0.0000	-1.7413	5.0812	-42.0007	37.8800	-49	0	0 
02373.304	-0.0198	-0.0042	0.9988	0.0000	0.0000	0.0000	-1.7358	5.0757	-41.8799	37.8800	-49	0	0 
02373.309	-0.0198	-0.0042	0.9988	0.0000	0.0000	0.0000	-1.7303	5.0702	-41.7645	37.9400	-50	0	0 
02373.309	-0.0198	-0.0042	0.9988	0.0000	0.0000	0.0000	-1.7249	5.0702	-41.6492	37.9400	-49	0	0 
02373.309	-0.0198	-0.0039	0.9985	0.0000	0.0000	0.0000	-1.7249	5.0647	-41.5338	37.8700	-49	0	0 
02373.329	-0.0198	-0.0039	0.9985	0.0000	0.0000	0.0000	-1.7194	5.0592	-41.4185	37.8700	-49	0	0 
02373.329	-0.0198	-0.0039	0.9985	0.0000	0.0000	0.0000	-1.7139	5.0592	-41.3031	37.8700	-49	0	0 
02373.329	-0.0198	-0.0039	0.9985	0.0000	0.0000	0.0000	-1.7084	5.0537	-41.1877	37.8300	-48	0	0 
02373.336	-0.0198	-0.0039	0.9985	0.0000	0.0000	0.0000	-1.7029	5.0482	-41.0724	37.8300	-48	0	0 
02373.336	-0.0198	-0.0039	0.9985	0.0000	0.0000	0.0000	-1.6974	5.0427	-40.9570	37.7900	-47	0	0 
02373.336	-0.0198	-0.0039	0.9985	0.0000	0.0000	0.0000	-1.6974	5.0427	-40.8417	37.7900	-47	0	0 
02373.351	-0.0198	-0.0039	0.9985	0.0000	0.0000	0.0000	-1.6919	5.0372	-40.7318	37.8300	-47	0	0 
02373.351	-0.0198	-0.0042	0.9985	0.0000	0.0000	0.0000	-1.6864	5.0317	-40.6165	37.8300	-47	0	0 
02373.365	-0.0198	-0.0042	0.9985	0.0000	0.0000	0.0000	-1.6809	5.0317	-40.5011	37.8600	-48	0	0 
02373.365	-0.0198	-0.0042	0.9985	0.0000	0.0000	0.0000	-1.6754	5.0262	-40.3912	37.8600	-48	0	0 
02373.365	-0.0198	-0.0042	0.9985	0.0000	0.0000	0.0000	-1.6754	5.0208	-40.2759	37.9000	-48	0	0 
02373.367	-0.0198	-0.0042	0.9985	0.0000	0.0000	0.0000	-1.6699	5.0153	-40.1660	37.9000	-48	0	0 
02373.367	-0.0198	-0.0042	0.9985	0.0000	0.0000	0.0000	-1.6644	5.0153	-40.0507	37.8800	-47	0	0 
02373.367	-0.0198	-0.0042	0.9985	0.0000	0.0000	0.0000	-1.6589	5.0098	-39.9408	37.8800	-48	0	0 
02373.411	-0.0198	-0.0042	0.9985	0.0000	0.0000	0.0000	-1.6589	5.0043	-39.8309	37.7300	-48	0	0 
02373.411	-0.0198	-0.0042	0.9985	0.0000	0.0000	0.0000	-1.6534	5.0043	-39.7211	37.7300	-48	0	0 
02373.411	-0.0198	-0.0042	0.9985	0.0000	0.0000	0.0000	-1.6479	4.9988	-39.6112	37.8600	-48	0	0 
02373.413	-0.0198	-0.0042	0.9985	0.0000	0.0000	0.0000	-1.6425	4.9933	-39.4958	37.8600	-48	0	0 
02373.413	-0.0198	-0.0042	0.9985	0.0000	0.0000	0.0000	-1.6425	4.9878	-39.3860	37.8600	-48	0	0 
02373.413	-0.0198	-0.0042	0.9985	0.0000	0.0000	0.0000	-1.6370	4.9878	-39.2761	37.8200	-48	0	0 
02373.422	-0.0198	-0.0042	0.9985	0.0000	0.0000	0.0000	-1.6315	4.9823	-39.1718	37.8200	-47	0	0 
02373.422	-0.0198	-0.0042	0.9985	0.0000	0.0000	0.0000	-1.6260	4.9768	-39.0619	37.9100	-48	0	0 
02373.422	-0.0198	-0.0042	0.9985	0.0000	0.0000	0.0000	-1.6260	4.9768	-38.9520	37.9100	-48	0	0 
02373.441	-0.0198	-0.0039	0.9983	0.0000	0.0000	0.0000	-1.6205	4.9713	-38.8422	37.9000	-48	0	0 
02373.441	-0.0198	-0.0039	0.9983	0.0000	0.0000	0.0000	-1.6150	4.9658	-38.7323	37.9000	-48	0	0 
02373.441	-0.0198	-0.0039	0.9983	0.0000	0.0000	0.0000	-1.6095	4.9658	-38.6279	37.8500	-48	0	0 
02373.472	-0.0198	-0.0039	0.9983	0.0000	0.0000	0.0000	-1.6095	4.9603	-38.5181	37.8500	-49	0	0 
02373.472	-0.0198	-0.0039	0.9983	0.0000	0.0000	0.0000	-1.6040	4.9548	-38.4137	37.8100	-49	0	0 
02373.472	-0.0198	-0.0039	0.9983	0.0000	0.0000	0.0000	-1.5985	4.9493	-38.3038	37.8100	-50	0	0 
02373.505	-0.0198	-0.0039	0.9983	0.0000	0.0000	0.0000	-1.5930	4.9493	-38.1995	37.9100	-50	0	0 
02373.505	-0.0198	-0.0039	0.9983	0.0000	0.0000	0.0000	-1.5930	4.9438	-38.0951	37.9100	-50	0	0 
02373.514	-0.0198	-0.0039	0.9983	0.0000	-0.0610	0.0000	-1.5875	4.9384	-37.9852	37.8800	-49	0	0 
02373.514	-0.0198	-0.0039	0.9983	0.0000	-0.0610	0.0000	-1.5820	4.9384	-37.8809	37.8800	-49	0	0 
02373.514	-0.0198	-0.0039	0.9983	0.0000	-0.0610	0.0000	-1.5820	4.9329	-37.7765	37.8800	-49	0	0 
02373.530	-0.0198	-0.0039	0.9983	0.0000	-0.0610	0.0000	-1.5765	4.9274	-37.6721	37.8800	-49	0	0 
02373.530	-0.0198	-0.0039	0.9983	0.0000	-0.0610	0.0000	-1.5710	4.9219	-37.5677	37.8800	-48	0	0 
02373.530	-0.0198	-0.0039	0.9983	0.0000	-0.0610	0.0000	-1.5656	4.9219	-37.4634	37.8500	-48	0	0 
02373.552	-0.0198	-0.0039	0.9983	0.0000	-0.0610	0.0000	-1.5656	4.9164	-37.3590	37.8500	-47	0	0 
02373.552	-0.0198	-0.0039	0.9983	0.0000	-0.0610	0.0000	-1.5601	4.9109	-37.2546	37.8000	-47	0	0 
02373.552	-0.0198	-0.0042	0.9983	0.0000	-0.0610	0.0000	-1.5546	4.9054	-37.1503	37.8000	-47	0	0 
02373.606	-0.0198	-0.0042	0.9983	0.0000	-0.0610	0.0000	-1.5546	4.9054	-37.0459	37.8400	-47	0	0 
02373.606	-0.0198	-0.0042	0.9983	0.0000	-0.0610	0.0000	-1.5491	4.8999	-36.9415	37.8400	-46	0	0 
02373.606	-0.0198	-0.0042	0.9983	0.0000	-0.0610	0.0000	-1.5436	4.8944	-36.8427	37.8600	-46	0	0 
02373.640	-0.0198	-0.0042	0.9983	0.0000	-0.0610	0.0000	-1.5436	4.8889	-36.7383	37.8600	-46	0	0 
02373.640	-0.0198	-0.0042	0.9983	0.0000	-0.0610	0.0000	-1.5381	4.8889	-36.6339	37.8100	-47	0	0 
02373.640	-0.0198	-0.0042	0.9983	0.0000	-0.0610	0.0000	-1.5326	4.8834	-36.5350	37.8100	-47	0	0 
02373.645	-0.0198	-0.0042	0.9983	0.0000	-0.0610	0.0000	-1.5326	4.8779	-36.4307	37.8200	-47	0	0 
02373.645	-0.0195	-0.0039	0.9983	0.0000	0.0000	0.0000	-1.5271	4.8724	-36.3318	37.8200	-47	0	0 
02373.645	-0.0195	-0.0039	0.9983	0.0000	0.0000	0.0000	-1.5216	4.8724	-36.2329	37.8500	-47	0	0 
02373.678	-0.0195	-0.0039	0.9983	0.0000	0.0000	0.0000	-1.5216	4.8669	-36.1285	37.8500	-47	0	0 
02373.678	-0.0195	-0.0039	0.9983	0.0000	0.0000	0.0000	-1.5161	4.8615	-36.0297	37.8300	-46	0	0 
02373.678	-0.0195	-0.0039	0.9983	0.0000	0.0000	0.0000	-1.5106	4.8615	-35.9308	37.8300	-47	0	0 
02373.731	-0.0195	-0.0039	0.9983	0.0000	0.0000	0.0000	-1.5106	4.8560	-35.8319	37.8300	-48	0	0 
02373.731	-0.0195	-0.0039	0.9983	0.0000	0.0000	0.0000	-1.5051	4.8505	-35.7275	37.8400	-49	0	0 
02373.731	-0.0195	-0.0039	0.9983	0.0000	0.0000	0.0000	-1.4996	4.8505	-35.6287	37.8400	-50	0	0 
02373.777	-0.0195	-0.0039	0.9985	0.0000	0.0000	0.0000	-1.4996	4.8450	-35.5298	37.8300	-51	0	0 
02373.777	-0.0195	-0.0039	0.9985	0.0000	0.0000	0.0000	-1.4941	4.8395	-35.4309	37.8300	-52	0	0 
02373.816	-0.0195	-0.0039	0.9985	0.0000	0.0000	0.0000	-1.4941	4.8395	-35.3375	37.8900	-52	0	0 
02373.816	-0.0195	-0.0039	0.9985	0.0000	0.0000	0.0000	-1.4886	4.8340	-35.2386	37.8900	-51	0	0 
02373.816	-0.0195	-0.0039	0.9985	0.0000	0.0000	0.0000	-1.4832	4.8285	-35.1398	37.8100	-50	0	0 
02373.821	-0.0195	-0.0039	0.9985	0.0000	0.0000	0.0000	-1.4832	4.8230	-35.0409	37.8100	-50	0	0 
02373.821	-0.0195	-0.0039	0.9985	0.0000	0.0000	0.0000	-1.4777	4.8230	-34.9420	37.8300	-50	0	0 
02373.821	-0.0195	-0.0039	0.9985	0.0000	0.0000	0.0000	-1.4722	4.8175	-34.8486	37.8300	-51	0	0 
02373.821	-0.0195	-0.0039	0.9988	0.0000	0.0000	0.0000	-1.4722	4.8120	-34.7498	37.8200	-51	0	0 
02373.821	-0.0195	-0.0039	0.9988	0.0000	0.0000	0.0000	-1.4667	4.8120	-34.6564	37.8200	-52	0	0 
02373.821	-0.0195	-0.0039	0.9988	0.0000	0.0000	0.0000	-1.4667	4.8065	-34.5575	37.8600	-53	0	0 
02373.834	-0.0195	-0.0039	0.9988	0.0000	0.0000	0.0000	-1.4612	4.8010	-34.4641	37.8600	-52	0	0 
02373.834	-0.0195	-0.0039	0.9988	0.0000	0.0000	0.0000	-1.4557	4.8010	-34.3652	37.8600	-51	0	0 
02373.834	-0.0195	-0.0039	0.9988	0.0000	0.0000	0.0000	-1.4557	4.7955	-34.2719	37.8300	-51	0	0 
02373.844	-0.0195	-0.0039	0.9988	0.0000	0.0000	0.0000	-1.4502	4.7900	-34.1785	37.8300	-52	0	0 
02373.844	-0.0195	-0.0039	0.9988	0.0000	0.0000	0.0000	-1.4502	4.7900	-34.0796	37.8900	-51	0	0 
02373.844	-0.0195	-0.0039	0.9990	0.0000	0.0000	0.0000	-1.4447	4.7845	-33.9862	37.8900	-50	0	0 
02373.893	-0.0195	-0.0039	0.9990	0.0000	0.0000	0.0000	-1.4392	4.7791	-33.8928	37.7600	-50	0	0 
02373.893	-0.0195	-0.0039	0.9990	0.0000	0.0000	0.0000	-1.4392	4.7791	-33.7994	37.7600	-50	0	0 
02373.893	-0.0195	-0.0039	0.9990	0.0000	0.0000	0.0000	-1.4337	4.7736	-33.7061	37.8900	-50	0	0 
02373.906	-0.0195	-0.0039	0.9990	0.0000	0.0000	0.0000	-1.4337	4.7681	-33.6127	37.8900	-50	0	0 
02373.906	-0.0195	-0.0039	0.9990	0.0000	0.0000	0.0000	-1.4282	4.7681	-33.5193	37.8800	-50	0	0 
02373.906	-0.0195	-0.0039	0.9990	0.0000	0.0000	0.0000	-1.4227	4.7626	-33.4259	37.8800	-51	0	0 
02373.925	-0.0195	-0.0039	0.9990	0.0000	0.0000	0.0000	-1.4227	4.7571	-33.3325	37.8200	-51	0	0 
02373.925	-0.0195	-0.0042	0.9990	0.0000	0.0000	0.0000	-1.4172	4.7571	-33.2446	37.8200	-51	0	0 
02373.925	-0.0195	-0.0042	0.9990	0.0000	0.0000	0.0000	-1.4172	4.7516	-33.1512	37.9000	-51	0	0 
02373.930	-0.0195	-0.0042	0.9990	0.0000	0.0000	0.0000	-1.4117	4.7461	-33.0579	37.9000	-51	0	0 
02373.930	-0.0195	-0.0042	0.9990	0.0000	0.0000	0.0000	-1.4117	4.7461	-32.9645	37.8500	-51	0	0 
02373.952	-0.0195	-0.0042	0.9990	0.0000	0.0000	0.0000	-1.4063	4.7406	-32.8766	37.8500	-51	0	0 
02373.952	-0.0195	-0.0042	0.9990	0.0000	0.0000	0.0000	-1.4008	4.7351	-32.7832	37.8500	-51	0	0 
02373.952	-0.0195	-0.0042	0.9990	0.0000	0.0000	0.0000	-1.4008	4.7351	-32.6953	37.8800	-51	0	0 
02373.962	-0.0195	-0.0042	0.9990	0.0000	0.0000	0.0000	-1.3953	4.7296	-32.6019	37.8800	-51	0	0 
02373.962	-0.0193	-0.0039	0.9990	0.0000	0.0000	0.0000	-1.3953	4.7241	-32.5140	37.8200	-50	0	0 
02373.962	-0.0193	-0.0039	0.9990	0.0000	0.0000	0.0000	-1.3898	4.7241	-32.4261	37.8200	-50	0	0 
02373.989	-0.0193	-0.0039	0.9990	0.0000	0.0000	0.0000	-1.3898	4.7186	-32.3328	37.8700	-50	0	0 
02373.989	-0.0193	-0.0039	0.9990	0.0000	0.0000	0.0000	-1.3843	4.7131	-32.2449	37.8700	-49	0	0 
02373.989	-0.0193	-0.0039	0.9990	0.0000	0.0000	0.0000	-1.3843	4.7131	-32.1570	37.8200	-49	0	0 
02373.997	-0.0193	-0.0039	0.9990	0.0000	0.0000	0.0000	-1.3788	4.7076	-32.0691	37.8200	-49	0	0 
02373.997	-0.0193	-0.0039	0.9990	0.0000	0.0000	0.0000	-1.3788	4.7076	-31.9757	37.8800	-50	0	0 
02373.997	-0.0193	-0.0039	0.9990	0.0000	0.0000	0.0000	-1.3733	4.7021	-31.8878	37.8800	-49	0	0 
02374.011	-0.0193	-0.0039	0.9988	0.0000	0.0000	0.0000	-1.3678	4.6967	-31.7999	37.8700	-48	0	0 
02374.011	-0.0193	-0.0039	0.9988	0.0000	0.0000	0.0000	-1.3678	4.6967	-31.7120	37.8700	-49	0	0 
02374.011	-0.0193	-0.0039	0.9988	0.0000	0.0000	0.0000	-1.3623	4.6912	-31.6241	37.8700	-49	0	0 
02374.019	-0.0193	-0.0039	0.9988	0.0000	0.0000	0.0000	-1.3623	4.6857	-31.5363	37.8700	-48	0	0 
02374.019	-0.0193	-0.0039	0.9988	0.0000	0.0000	0.0000	-1.3568	4.6857	-31.4539	37.8500	-48	0	0 
02374.019	-0.0193	-0.0039	0.9988	0.0000	0.0000	0.0000	-1.3568	4.6802	-31.3660	37.8500	-49	0	0 
02374.046	-0.0193	-0.0039	0.9988	0.0000	0.0000	0.0000	-1.3513	4.6747	-31.2781	37.8500	-49	0	0 
02374.046	-0.0193	-0.0039	0.9988	0.0000	0.0000	0.0000	-1.3513	4.6747	-31.1902	37.8700	-49	0	0 
02374.046	-0.0193	-0.0037	0.9985	0.0000	0.0000	0.0000	-1.3458	4.6692	-31.1078	37.8700	-48	0	0 
02374.052	-0.0193	-0.0037	0.9985	0.0000	0.0000	0.0000	-1.3458	4.6637	-31.0199	37.8400	-47	0	0 
02374.052	-0.0193	-0.0037	0.9985	0.0000	0.0000	0.0000	-1.3403	4.6637	-30.9375	37.8400	-48	0	0 
02374.052	-0.0193	-0.0037	0.9985	0.0000	0.0000	0.0000	-1.3403	4.6582	-30.8496	37.8500	-48	0	0 
02374.052	-0.0193	-0.0037	0.9985	0.0000	0.0000	0.0000	-1.3348	4.6527	-30.7672	37.8500	-49	0	0 
02374.052	-0.0193	-0.0037	0.9985	0.0000	0.0000	0.0000	-1.3348	4.6527	-30.6793	37.8500	-49	0	0 
02374.052	-0.0193	-0.0037	0.9985	0.0000	0.0000	0.0000	-1.3293	4.6472	-30.5969	37.8500	-49	0	0 
02374.052	-0.0193	-0.0037	0.9985	0.0000	0.0000	0.0000	-1.3293	4.6472	-30.5090	37.8700	-48	0	0 
02374.052	-0.0193	-0.0037	0.9985	0.0000	0.0000	0.0000	-1.3239	4.6417	-30.4266	37.8700	-49	0	0 
02374.055	-0.0193	-0.0037	0.9985	0.0000	0.0000	0.0000	-1.3239	4.6362	-30.3442	37.8700	-49	0	0 
02374.055	-0.0193	-0.0037	0.9985	0.0000	0.0000	0.0000	-1.3184	4.6362	-30.2618	37.8700	-49	0	0 
02374.055	-0.0193	-0.0037	0.9985	0.0000	0.0000	0.0000	-1.3184	4.6307	-30.1740	37.8000	-49	0	0 
02374.057	-0.0193	-0.0037	0.9985	0.0000	0.0000	0.0000	-1.3129	4.6252	-30.0916	37.8000	-49	0	0 
02374.057	-0.0193	-0.0037	0.9985	0.0000	0.0000	0.0000	-1.3129	4.6252	-30.0092	37.8700	-49	0	0 
02374.057	-0.0193	-0.0037	0.9985	0.0000	0.0000	0.0000	-1.3074	4.6198	-29.9268	37.8700	-50	0	0 
02374.067	-0.0193	-0.0037	0.9985	0.0000	0.0000	0.0000	-1.3074	4.6198	-29.8444	37.8700	-50	0	0 
02374.067	-0.0195	-0.0037	0.9985	0.0000	0.0000	0.0000	-1.3019	4.6143	-29.7620	37.8600	-50	0	0 
02374.067	-0.0195	-0.0037	0.9985	0.0000	0.0000	0.0000	-1.3019	4.6088	-29.6796	37.8600	-49	0	0 
02374.144	-0.0195	-0.0037	0.9985	0.0000	0.0000	0.0000	-1.2964	4.6088	-29.5972	37.8200	-49	0	0 
02374.144	-0.0195	-0.0037	0.9985	0.0000	0.0000	0.0000	-1.2964	4.6033	-29.5203	37.8200	-49	0	0 
02374.144	-0.0195	-0.0037	0.9985	0.0000	0.0000	0.0000	-1.2909	4.5978	-29.4379	37.8800	-49	0	0 
02374.165	-0.0195	-0.0037	0.9985	0.0000	0.0000	0.0000	-1.2909	4.5978	-29.3555	37.8800	-50	0	0 
02374.165	-0.0195	-0.0037	0.9985	0.0000	0.0000	0.0000	-1.2854	4.5923	-29.2731	37.8500	-49	0	0 
02374.165	-0.0195	-0.0037	0.9985	0.0000	0.0000	0.0000	-1.2854	4.5923	-29.1962	37.8500	-48	0	0 
02374.192	-0.0198	-0.0039	0.9988	0.0000	0.0000	0.0000	-1.2854	4.5868	-29.1138	37.8800	-48	0	0 
02374.192	-0.0198	-0.0039	0.9988	0.0000	0.0000	0.0000	-1.2799	4.5813	-29.0369	37.8800	-47	0	0 
02374.192	-0.0198	-0.0039	0.9988	0.0000	0.0000	0.0000	-1.2799	4.5813	-28.9545	37.9100	-48	0	0 
02374.229	-0.0198	-0.0039	0.9988	0.0000	0.0000	0.0000	-1.2744	4.5758	-28.8776	37.9100	-49	0	0 
02374.229	-0.0198	-0.0039	0.9988	0.0000	0.0000	0.0000	-1.2744	4.5758	-28.7952	37.8500	-48	0	0 
02374.229	-0.0198	-0.0039	0.9988	0.0000	0.0000	0.0000	-1.2689	4.5703	-28.7183	37.8500	-48	0	0 
02374.235	-0.0198	-0.0039	0.9988	0.0000	0.0000	0.0000	-1.2689	4.5648	-28.6359	37.8500	-48	0	0 
02374.235	-0.0198	-0.0039	0.9988	0.0000	0.0000	0.0000	-1.2634	4.5648	-28.5590	37.8800	-49	0	0 
02374.260	-0.0198	-0.0039	0.9988	0.0000	0.0000	0.0000	-1.2634	4.5593	-28.4821	37.8800	-49	0	0 
02374.260	-0.0198	-0.0039	0.9988	0.0000	0.0000	0.0000	-1.2634	4.5593	-28.4052	37.9000	-49	0	0 
02374.260	-0.0198	-0.0039	0.9988	0.0000	0.0000	0.0000	-1.2579	4.5538	-28.3228	37.9000	-48	0	0 
02374.286	-0.0198	-0.0039	0.9988	0.0000	0.0000	0.0000	-1.2579	4.5538	-28.2458	37.9100	-48	0	0 
02374.286	-0.0198	-0.0039	0.9988	0.0000	0.0000	0.0000	-1.2524	4.5483	-28.1689	37.9100	-48	0	0 
02374.286	-0.0198	-0.0039	0.9988	0.0000	0.0000	0.0000	-1.2524	4.5428	-28.0920	37.7900	-47	0	0 
02374.310	-0.0198	-0.0039	0.9988	0.0000	0.0000	0.0000	-1.2469	4.5428	-28.0151	37.7900	-47	0	0 
02374.310	-0.0198	-0.0039	0.9985	0.0000	0.0000	0.0000	-1.2469	4.5374	-27.9382	37.8900	-47	0	0 
02374.310	-0.0198	-0.0039	0.9985	0.0000	0.0000	0.0000	-1.2469	4.5374	-27.8613	37.8900	-47	0	0 
02374.339	-0.0198	-0.0039	0.9985	0.0000	0.0000	0.0000	-1.2415	4.5319	-27.7844	37.9100	-48	0	0 
02374.339	-0.0198	-0.0039	0.9985	0.0000	0.0000	0.0000	-1.2415	4.5264	-27.7130	37.9100	-47	0	0 
02374.339	-0.0198	-0.0039	0.9985	0.0000	0.0000	0.0000	-1.2360	4.5264	-27.6361	37.8600	-47	0	0 
02374.390	-0.0198	-0.0039	0.9985	0.0000	0.0000	0.0000	-1.2360	4.5209	-27.5592	37.8600	-47	0	0 
02374.390	-0.0198	-0.0039	0.9985	0.0000	0.0000	0.0000	-1.2360	4.5209	-27.4823	37.8900	-47	0	0 
02374.390	-0.0198	-0.0039	0.9985	0.0000	0.0000	0.0000	-1.2305	4.5154	-27.4109	37.8900	-47	0	0 
02374.415	-0.0198	-0.0042	0.9988	0.0000	0.0000	0.0000	-1.2305	4.5154	-27.3340	37.8900	-47	0	0 
02374.415	-0.0198	-0.0042	0.9988	0.0000	0.0000	0.0000	-1.2250	4.5099	-27.2571	37.9000	-47	0	0 
02374.415	-0.0198	-0.0042	0.9988	0.0000	0.0000	0.0000	-1.2250	4.5044	-27.1857	37.9000	-48	0	0 
02374.417	-0.0198	-0.0042	0.9988	0.0000	0.0000	0.0000	-1.2250	4.5044	-27.1088	37.8200	-48	0	0 
02374.417	-0.0198	-0.0042	0.9988	0.0000	0.0000	0.0000	-1.2195	4.4989	-27.0374	37.8200	-48	0	0 
02374.417	-0.0198	-0.0042	0.9988	0.0000	0.0000	0.0000	-1.2195	4.4989	-26.9604	37.8500	-48	0	0 
02374.423	-0.0198	-0.0042	0.9988	0.0000	0.0000	0.0000	-1.2140	4.4934	-26.8890	37.8500	-48	0	0 
02374.423	-0.0198	-0.0042	0.9988	0.0000	0.0000	0.0000	-1.2140	4.4934	-26.8121	37.7800	-48	0	0 
02374.465	-0.0198	-0.0042	0.9988	0.0000	0.0000	0.0000	-1.2140	4.4879	-26.7407	37.7800	-48	0	0 
02374.465	-0.0198	-0.0042	0.9988	0.0000	0.0000	0.0000	-1.2085	4.4824	-26.6693	37.9100	-48	0	0 
02374.465	-0.0198	-0.0042	0.9988	0.0000	0.0000	0.0000	-1.2085	4.4824	-26.5979	37.9100	-48	0	0 
02374.473	-0.0198	-0.0042	0.9988	0.0000	0.0000	0.0000	-1.2030	4.4769	-26.5210	37.8400	-49	0	0 
02374.473	-0.0198	-0.0042	0.9988	0.0000	0.0000	0.0000	-1.2030	4.4769	-26.4496	37.8400	-48	0	0 
02374.473	-0.0198	-0.0042	0.9988	0.0000	0.0000	0.0000	-1.2030	4.4714	-26.3782	37.8100	-48	0	0 
02374.473	-0.0198	-0.0042	0.9988	0.0000	0.0000	0.0000	-1.1975	4.4714	-26.3068	37.8100	-48	0	0 
02374.473	-0.0198	-0.0042	0.9988	0.0000	0.0000	0.0000	-1.1975	4.4659	-26.2354	37.7800	-48	0	0 
02374.473	-0.0198	-0.0042	0.9990	0.0000	0.0000	0.0000	-1.1975	4.4604	-26.1639	37.7800	-49	0	0 
02374.492	-0.0198	-0.0042	0.9990	0.0000	0.0000	0.0000	-1.1920	4.4604	-26.0925	37.7800	-50	0	0 
02374.492	-0.0198	-0.0042	0.9990	0.0000	0.0000	0.0000	-1.1920	4.4550	-26.0211	37.9000	-49	0	0 
02374.492	-0.0198	-0.0042	0.9990	0.0000	0.0000	0.0000	-1.1920	4.4550	-25.9497	37.9000	-49	0	0 
02374.522	-0.0198	-0.0042	0.9990	0.0000	0.0000	0.0000	-1.1865	4.4495	-25.8783	37.8200	-49	0	0 
02374.522	-0.0198	-0.0042	0.9990	0.0000	0.0000	0.0000	-1.1865	4.4495	-25.8069	37.8200	-50	0	0 
02374.522	-0.0198	-0.0042	0.9990	0.0000	0.0000	0.0000	-1.1810	4.4440	-25.7410	37.8600	-50	0	0 
02374.560	-0.0198	-0.0042	0.9990	0.0000	0.0000	0.0000	-1.1810	4.4440	-25.6696	37.8600	-50	0	0 
02374.560	-0.0198	-0.0042	0.9990	0.0000	0.0000	0.0000	-1.1810	4.4385	-25.5981	37.8500	-50	0	0 
02374.560	-0.0198	-0.0042	0.9990	0.0000	0.0000	0.0000	-1.1755	4.4330	-25.5267	37.8500	-50	0	0 
02374.591	-0.0198	-0.0042	0.9990	0.0000	0.0000	0.0000	-1.1755	4.4330	-25.4608	37.8600	-49	0	0 
02374.591	-0.0198	-0.0042	0.9990	0.0000	0.0000	0.0000	-1.1755	4.4275	-25.3894	37.8600	-49	0	0 
02374.591	-0.0198	-0.0042	0.9990	0.0000	0.0000	0.0000	-1.1700	4.4275	-25.3235	37.8800	-49	0	0 
02374.609	-0.0198	-0.0042	0.9990	0.0000	0.0000	0.0000	-1.1700	4.4220	-25.2521	37.8800	-49	0	0 
02374.609	-0.0198	-0.0042	0.9990	0.0000	0.0000	0.0000	-1.1700	4.4220	-25.1862	37.9000	-50	0	0 
02374.609	-0.0198	-0.0042	0.9990	0.0000	0.0000	0.0000	-1.1646	4.4165	-25.1147	37.9000	-50	0	0 
02374.643	-0.0195	-0.0039	0.9993	0.0000	0.0000	0.0000	-1.1646	4.4165	-25.0488	37.8600	-50	0	0 
02374.643	-0.0195	-0.0039	0.9993	0.0000	0.0000	0.0000	-1.1646	4.4110	-24.9774	37.8600	-49	0	0 
02374.649	-0.0195	-0.0039	0.9993	0.0000	0.0000	0.0000	-1.1591	4.4110	-24.9115	37.8600	-49	0	0 
02374.649	-0.0195	-0.0039	0.9993	0.0000	0.0000	0.0000	-1.1591	4.4055	-24.8456	37.7500	-49	0	0 
02374.649	-0.0195	-0.0039	0.9993	0.0000	0.0000	0.0000	-1.1591	4.4055	-24.7742	37.7500	-49	0	0 
02374.672	-0.0195	-0.0039	0.9993	0.0000	0.0000	0.0000	-1.1536	4.4000	-24.7083	37.8400	-49	0	0 
02374.672	-0.0195	-0.0039	0.9993	0.0000	0.0000	0.0000	-1.1536	4.3945	-24.6423	37.8400	-50	0	0 
02374.672	-0.0195	-0.0039	0.9993	0.0000	0.0000	0.0000	-1.1536	4.3945	-24.5764	37.8500	-51	0	0 
02374.693	-0.0195	-0.0037	0.9990	0.0000	0.0000	0.0000	-1.1481	4.3890	-24.5105	37.8500	-50	0	0 
02374.693	-0.0195	-0.0037	0.9990	0.0000	0.0000	0.0000	-1.1481	4.3890	-24.4391	37.8400	-50	0	0 
02374.693	-0.0195	-0.0037	0.9990	0.0000	0.0000	0.0000	-1.1426	4.3835	-24.3732	37.8400	-51	0	0 
02374.720	-0.0195	-0.0037	0.9990	0.0000	0.0000	0.0000	-1.1426	4.3835	-24.3073	37.8600	-51	0	0 
02374.720	-0.0195	-0.0037	0.9990	0.0000	0.0000	0.0000	-1.1426	4.3781	-24.2413	37.8600	-50	0	0 
02374.720	-0.0195	-0.0037	0.9990	0.0000	0.0000	0.0000	-1.1371	4.3781	-24.1754	37.8000	-49	0	0 
02374.724	-0.0195	-0.0037	0.9990	0.0000	0.0000	0.0000	-1.1371	4.3726	-24.1150	37.8000	-50	0	0 
02374.724	-0.0195	-0.0037	0.9990	0.0000	0.0000	0.0000	-1.1371	4.3726	-24.0491	37.8100	-50	0	0 
02374.724	-0.0190	-0.0037	0.9988	0.0000	0.0000	0.0000	-1.1316	4.3671	-23.9832	37.8100	-50	0	0 
02374.728	-0.0190	-0.0037	0.9988	0.0000	0.0000	0.0000	-1.1316	4.3671	-23.9172	37.8100	-50	0	0 
02374.728	-0.0190	-0.0037	0.9988	0.0000	0.0000	0.0000	-1.1316	4.3616	-23.8513	37.8900	-50	0	0 
02374.728	-0.0190	-0.0037	0.9988	0.0000	0.0000	0.0000	-1.1261	4.3616	-23.7854	37.8900	-50	0	0 
02374.735	-0.0190	-0.0037	0.9988	0.0000	0.0000	0.0000	-1.1261	4.3561	-23.7250	37.8700	-50	0	0 
02374.735	-0.0190	-0.0037	0.9988	0.0000	0.0000	0.0000	-1.1261	4.3506	-23.6591	37.8700	-50	0	0 
02374.735	-0.0190	-0.0037	0.9988	0.0000	0.0000	0.0000	-1.1206	4.3506	-23.5931	37.8100	-50	0	0 
02374.737	-0.0190	-0.0037	0.9988	0.0000	0.0000	0.0000	-1.1206	4.3451	-23.5327	37.8100	-51	0	0 
02374.737	-0.0190	-0.0039	0.9988	0.0000	0.0000	0.0000	-1.1206	4.3451	-23.4668	37.8900	-51	0	0 
02374.737	-0.0190	-0.0039	0.9988	0.0000	0.0000	0.0000	-1.1206	4.3396	-23.4064	37.8900	-51	0	0 
02374.740	-0.0190	-0.0039	0.9988	0.0000	0.0000	0.0000	-1.1151	4.3396	-23.3405	37.9000	-51	0	0 
02374.740	-0.0190	-0.0039	0.9988	0.0000	0.0000	0.0000	-1.1151	4.3341	-23.2800	37.9000	-50	0	0 
02374.747	-0.0190	-0.0039	0.9988	0.0000	0.0000	0.0000	-1.1151	4.3341	-23.2141	37.8100	-50	0	0 
02374.747	-0.0190	-0.0039	0.9988	0.0000	0.0000	0.0000	-1.1096	4.3286	-23.1537	37.8100	-49	0	0 
02374.747	-0.0190	-0.0039	0.9988	0.0000	0.0000	0.0000	-1.1096	4.3286	-23.0933	37.9000	-48	0	0 
02374.756	-0.0190	-0.0039	0.9988	0.0000	0.0000	0.0000	-1.1096	4.3231	-23.0273	37.9000	-49	0	0 
02374.756	-0.0190	-0.0042	0.9985	0.0000	0.0000	0.0000	-1.1041	4.3231	-22.9669	37.8600	-49	0	0 
02374.756	-0.0190	-0.0042	0.9985	0.0000	0.0000	0.0000	-1.1041	4.3176	-22.9065	37.8600	-49	0	0 
02374.758	-0.0190	-0.0042	0.9985	0.0000	0.0000	0.0000	-1.1041	4.3176	-22.8406	37.8600	-50	0	0 
02374.758	-0.0190	-0.0042	0.9985	0.0000	0.0000	0.0000	-1.1041	4.3121	-22.7802	37.8600	-50	0	0 
02374.758	-0.0190	-0.0042	0.9985	0.0000	0.0000	0.0000	-1.0986	4.3121	-22.7197	37.8600	-50	0	0 
02374.764	-0.0190	-0.0042	0.9985	0.0000	0.0000	0.0000	-1.0986	4.3066	-22.6593	37.8800	-50	0	0 
02374.764	-0.0190	-0.0042	0.9985	0.0000	0.0000	0.0000	-1.0986	4.3066	-22.5989	37.8800	-50	0	0 
02374.764	-0.0190	-0.0042	0.9985	0.0000	0.0000	0.0000	-1.0931	4.3011	-22.5385	37.8600	-50	0	0 
02374.768	-0.0193	-0.0044	0.9988	0.0000	0.0000	0.0000	-1.0931	4.3011	-22.4780	37.8600	-50	0	0 
02374.768	-0.0193	-0.0044	0.9988	0.0000	0.0000	0.0000	-1.0931	4.2957	-22.4176	37.8500	-50	0	0 
02374.768	-0.0193	-0.0044	0.9988	0.0000	0.0000	0.0000	-1.0931	4.2902	-22.3572	37.8500	-50	0	0 
02374.772	-0.0193	-0.0044	0.9988	0.0000	0.0000	0.0000	-1.0876	4.2902	-22.2968	37.8500	-50	0	0 
02374.772	-0.0193	-0.0044	0.9988	0.0000	0.0000	0.0000	-1.0876	4.2847	-22.2363	37.8500	-50	0	0 
02374.772	-0.0193	-0.0044	0.9988	0.0000	0.0000	0.0000	-1.0876	4.2847	-22.1759	37.8300	-50	0	0 
02374.784	-0.0193	-0.0044	0.9988	0.0000	0.0000	0.0000	-1.0822	4.2792	-22.1155	37.8300	-50	0	0 
02374.784	-0.0193	-0.0044	0.9988	0.0000	0.0000	0.0000	-1.0822	4.2792	-22.0551	37.8100	-49	0	0 
02374.784	-0.0193	-0.0044	0.9988	0.0000	0.0000	0.0000	-1.0822	4.2737	-22.0001	37.8100	-48	0	0 
02374.806	-0.0193	-0.0044	0.9988	0.0000	0.0000	0.0000	-1.0822	4.2737	-21.9397	37.8800	-47	0	0 
02374.806	-0.0193	-0.0044	0.9988	0.0000	0.0000	0.0000	-1.0767	4.2682	-21.8793	37.8800	-47	0	0 
02374.806	-0.0193	-0.0044	0.9988	0.0000	0.0000	0.0000	-1.0767	4.2682	-21.8188	37.8800	-47	0	0 
02374.825	-0.0193	-0.0044	0.9988	0.0000	0.0000	0.0000	-1.0767	4.2682	-21.7639	37.8000	-48	0	0 
02374.825	-0.0193	-0.0044	0.9988	0.0000	0.0000	0.0000	-1.0767	4.2627	-21.7035	37.8000	-49	0	0 
02374.828	-0.0193	-0.0044	0.9988	0.0000	0.0000	0.0000	-1.0712	4.2627	-21.6486	37.7900	-49	0	0 
02374.828	-0.0193	-0.0044	0.9988	0.0000	0.0000	0.0000	-1.0712	4.2572	-21.5881	37.7900	-49	0	0 
02374.828	-0.0195	-0.0044	0.9988	0.0000	0.0000	0.0000	-1.0712	4.2572	-21.5277	37.8800	-48	0	0 
02374.832	-0.0195	-0.0044	0.9988	0.0000	0.0000	0.0000	-1.0712	4.2517	-21.4728	37.8800	-48	0	0 
02374.832	-0.0195	-0.0044	0.9988	0.0000	0.0000	0.0000	-1.0657	4.2517	-21.4178	37.8500	-48	0	0 
02374.832	-0.0195	-0.0044	0.9988	0.0000	0.0000	0.0000	-1.0657	4.2462	-21.3574	37.8500	-49	0	0 
02374.843	-0.0195	-0.0044	0.9988	0.0000	0.0000	0.0000	-1.0657	4.2462	-21.3025	37.8800	-49	0	0 
02374.843	-0.0195	-0.0044	0.9988	0.0000	0.0000	0.0000	-1.0657	4.2407	-21.2421	37.8800	-49	0	0 
02374.843	-0.0195	-0.0044	0.9988	0.0000	0.0000	0.0000	-1.0602	4.2407	-21.1871	37.8200	-49	0	0 
02374.848	-0.0195	-0.0044	0.9988	0.0000	0.0000	0.0000	-1.0602	4.2352	-21.1322	37.8200	-48	0	0 
02374.848	-0.0195	-0.0044	0.9985	0.0000	0.0000	0.0000	-1.0602	4.2352	-21.0718	37.8700	-47	0	0 
02374.848	-0.0195	-0.0044	0.9985	0.0000	0.0000	0.0000	-1.0602	4.2297	-21.0168	37.8700	-47	0	0 
02374.876	-0.0195	-0.0044	0.9985	0.0000	0.0000	0.0000	-1.0547	4.2297	-20.9619	37.8700	-46	0	0 
02374.876	-0.0195	-0.0044	0.9985	0.0000	0.0000	0.0000	-1.0547	4.2242	-20.9070	37.8700	-45	0	0 
02374.876	-0.0195	-0.0044	0.9985	0.0000	0.0000	0.0000	-1.0547	4.2242	-20.8521	37.8700	-45	0	0 
02374.883	-0.0195	-0.0044	0.9985	0.0000	0.0000	0.0000	-1.0547	4.2188	-20.7916	37.8500	-45	0	0 
02374.883	-0.0195	-0.0044	0.9985	0.0000	0.0000	0.0000	-1.0492	4.2188	-20.7367	37.8500	-45	0	0 
02374.883	-0.0195	-0.0044	0.9985	0.0000	0.0000	0.0000	-1.0492	4.2133	-20.6818	37.7700	-45	0	0 
02374.886	-0.0195	-0.0042	0.9983	0.0000	0.0000	0.0000	-1.0492	4.2133	-20.6268	37.7700	-46	0	0 
02374.886	-0.0195	-0.0042	0.9983	0.0000	0.0000	0.0000	-1.0492	4.2133	-20.5719	37.8700	-47	0	0 
02374.886	-0.0195	-0.0042	0.9983	0.0000	0.0000	0.0000	-1.0492	4.2078	-20.5170	37.8700	-48	0	0 
02374.904	-0.0195	-0.0042	0.9983	0.0000	0.0000	0.0000	-1.0437	4.2078	-20.4620	37.8300	-49	0	0 
02374.904	-0.0195	-0.0042	0.9983	0.0000	0.0000	0.0000	-1.0437	4.2023	-20.4071	37.8300	-48	0	0 
02374.904	-0.0195	-0.0042	0.9983	0.0000	0.0000	0.0000	-1.0437	4.2023	-20.3577	37.8400	-48	0	0 
02374.982	-0.0195	-0.0042	0.9983	0.0000	0.0000	0.0000	-1.0437	4.1968	-20.3027	37.8400	-47	0	0 
02374.982	-0.0195	-0.0042	0.9983	0.0000	0.0000	0.0000	-1.0382	4.1968	-20.2478	37.8800	-47	0	0 
02375.023	-0.0195	-0.0042	0.9985	0.0000	0.0000	0.0000	-1.0382	4.1913	-20.1929	37.8800	-47	0	0 
02375.023	-0.0195	-0.0042	0.9985	0.0000	0.0000	0.0000	-1.0382	4.1913	-20.1379	37.7900	-47	0	0 
02375.023	-0.0195	-0.0042	0.9985	0.0000	0.0000	0.0000	-1.0382	4.1858	-20.0830	37.7900	-47	0	0 
02375.056	-0.0195	-0.0042	0.9985	0.0000	0.0000	0.0000	-1.0327	4.1858	-20.0336	37.7900	-47	0	0 
02375.056	-0.0195	-0.0042	0.9985	0.0000	0.0000	0.0000	-1.0327	4.1858	-19.9786	37.8200	-48	0	0 
02375.056	-0.0195	-0.0042	0.9985	0.0000	0.0000	0.0000	-1.0327	4.1803	-19.9237	37.8200	-49	0	0 
02375.058	-0.0195	-0.0042	0.9985	0.0000	0.0000	0.0000	-1.0327	4.1803	-19.8743	37.8500	-49	0	0 
02375.058	-0.0195	-0.0042	0.9985	0.0000	0.0000	0.0000	-1.0327	4.1748	-19.8193	37.8500	-48	0	0 
02375.058	-0.0195	-0.0039	0.9985	0.0000	0.0000	0.0000	-1.0272	4.1748	-19.7699	37.8000	-49	0	0 
02375.060	-0.0195	-0.0039	0.9985	0.0000	0.0000	0.0000	-1.0272	4.1693	-19.7150	37.8000	-49	0	0 
02375.060	-0.0195	-0.0039	0.9985	0.0000	0.0000	0.0000	-1.0272	4.1693	-19.6655	37.8600	-50	0	0 
02375.060	-0.0195	-0.0039	0.9985	0.0000	0.0000	0.0000	-1.0272	4.1693	-19.6106	37.8600	-50	0	0 
02375.073	-0.0195	-0.0039	0.9985	0.0000	0.0000	0.0000	-1.0217	4.1638	-19.5612	37.8700	-50	0	0 
02375.073	-0.0195	-0.0039	0.9985	0.0000	0.0000	0.0000	-1.0217	4.1638	-19.5062	37.8700	-50	0	0 
02375.073	-0.0195	-0.0039	0.9985	0.0000	0.0000	0.0000	-1.0217	4.1583	-19.4568	37.8900	-49	0	0 
02375.101	-0.0195	-0.0039	0.9985	0.0000	0.0000	0.0000	-1.0217	4.1583	-19.4019	37.8900	-48	0	0 
02375.101	-0.0195	-0.0037	0.9988	0.0000	0.0000	0.0000	-1.0162	4.1528	-19.3524	37.8500	-48	0	0 
02375.102	-0.0195	-0.0037	0.9988	0.0000	0.0000	0.0000	-1.0162	4.1528	-19.3030	37.8500	-47	0	0 
02375.122	-0.0195	-0.0037	0.9988	0.0000	0.0000	0.0000	-1.0162	4.1473	-19.2480	37.9000	-47	0	0 
02375.122	-0.0195	-0.0037	0.9988	0.0000	0.0000	0.0000	-1.0162	4.1473	-19.1986	37.9000	-46	0	0 
02375.122	-0.0195	-0.0037	0.9988	0.0000	0.0000	0.0000	-1.0162	4.1473	-19.1492	37.9000	-47	0	0 
02375.157	-0.0195	-0.0037	0.9988	0.0000	0.0000	0.0000	-1.0107	4.1418	-19.0997	37.8200	-47	0	0 
02375.157	-0.0195	-0.0037	0.9988	0.0000	0.0000	0.0000	-1.0107	4.1418	-19.0503	37.8200	-48	0	0 
02375.170	-0.0195	-0.0037	0.9988	0.0000	0.0000	0.0000	-1.0107	4.1364	-18.9954	37.8700	-49	0	0 
02375.170	-0.0198	-0.0037	0.9990	0.0000	0.0000	0.0000	-1.0107	4.1364	-18.9459	37.8700	-48	0	0 
02375.170	-0.0198	-0.0037	0.9990	0.0000	0.0000	0.0000	-1.0052	4.1364	-18.8965	37.8500	-48	0	0 
02375.180	-0.0198	-0.0037	0.9990	0.0000	0.0000	0.0000	-1.0052	4.1309	-18.8470	37.8500	-48	0	0 
02375.180	-0.0198	-0.0037	0.9990	0.0000	0.0000	0.0000	-1.0052	4.1309	-18.7976	37.8300	-48	0	0 
02375.180	-0.0198	-0.0037	0.9990	0.0000	0.0000	0.0000	-1.0052	4.1254	-18.7482	37.8300	-48	0	0 
02375.196	-0.0198	-0.0037	0.9990	0.0000	0.0000	0.0000	-1.0052	4.1254	-18.6987	37.8200	-48	0	0 
02375.196	-0.0198	-0.0037	0.9990	0.0000	0.0000	0.0000	-0.9998	4.1199	-18.6493	37.8200	-48	0	0 
02375.196	-0.0198	-0.0037	0.9990	0.0000	0.0000	0.0000	-0.9998	4.1199	-18.5999	37.8300	-48	0	0 
02375.210	-0.0198	-0.0034	0.9988	0.0000	0.0000	0.0000	-0.9998	4.1199	-18.5504	37.8300	-48	0	0 
02375.210	-0.0198	-0.0034	0.9988	0.0000	0.0000	0.0000	-0.9998	4.1144	-18.5010	37.8100	-48	0	0 
02375.210	-0.0198	-0.0034	0.9988	0.0000	0.0000	0.0000	-0.9998	4.1144	-18.4570	37.8100	-49	0	0 
02375.237	-0.0198	-0.0034	0.9988	0.0000	0.0000	0.0000	-0.9943	4.1089	-18.4076	37.8800	-50	0	0 
02375.237	-0.0198	-0.0034	0.9988	0.0000	0.0000	0.0000	-0.9943	4.1089	-18.3582	37.8800	-50	0	0 
02375.237	-0.0198	-0.0034	0.9988	0.0000	0.0000	0.0000	-0.9943	4.1089	-18.3087	37.8800	-49	0	0 
02375.244	-0.0198	-0.0034	0.9988	0.0000	0.0000	0.0000	-0.9943	4.1034	-18.2593	37.8700	-48	0	0 
02375.244	-0.0198	-0.0034	0.9988	0.0000	0.0000	0.0000	-0.9888	4.1034	-18.2153	37.8700	-49	0	0 
02375.244	-0.0200	-0.0037	0.9988	0.0000	0.0000	0.0000	-0.9888	4.0979	-18.1659	37.8300	-49	0	0 
02375.253	-0.0200	-0.0037	0.9988	0.0000	0.0000	0.0000	-0.9888	4.0979	-18.1165	37.8300	-49	0	0 
02375.253	-0.0200	-0.0037	0.9988	0.0000	0.0000	0.0000	-0.9888	4.0979	-18.0725	37.8400	-48	0	0 
02375.253	-0.0200	-0.0037	0.9988	0.0000	0.0000	0.0000	-0.9888	4.0924	-18.0231	37.8400	-49	0	0 
02375.266	-0.0200	-0.0037	0.9988	0.0000	0.0000	0.0000	-0.9833	4.0924	-17.9736	37.8800	-49	0	0 
02375.266	-0.0200	-0.0037	0.9988	0.0000	0.0000	0.0000	-0.9833	4.0869	-17.9297	37.8800	-48	0	0 
02375.266	-0.0200	-0.0037	0.9988	0.0000	0.0000	0.0000	-0.9833	4.0869	-17.8802	37.8200	-48	0	0 
02375.277	-0.0200	-0.0037	0.9988	0.0000	0.0000	0.0000	-0.9833	4.0869	-17.8363	37.8200	-48	0	0 
02375.277	-0.0203	-0.0039	0.9988	0.0000	0.0000	0.0000	-0.9833	4.0814	-17.7869	37.8500	-49	0	0 
02375.289	-0.0203	-0.0039	0.9988	0.0000	0.0000	0.0000	-0.9778	4.0814	-17.7429	37.8500	-49	0	0 
02375.289	-0.0203	-0.0039	0.9988	0.0000	0.0000	0.0000	-0.9778	4.0814	-17.6935	37.8200	-49	0	0 
02375.289	-0.0203	-0.0039	0.9988	0.0000	0.0000	0.0000	-0.9778	4.0759	-17.6495	37.8200	-49	0	0 
02375.299	-0.0203	-0.0039	0.9988	0.0000	0.0000	0.0000	-0.9778	4.0759	-17.6056	37.8500	-49	0	0 
02375.299	-0.0203	-0.0039	0.9988	0.0000	0.0000	0.0000	-0.9778	4.0704	-17.5562	37.8500	-48	0	0 
02375.299	-0.0203	-0.0039	0.9988	0.0000	0.0000	0.0000	-0.9778	4.0704	-17.5122	37.8500	-48	0	0 
02375.313	-0.0203	-0.0039	0.9988	0.0000	0.0000	0.0000	-0.9723	4.0704	-17.4628	37.8900	-48	0	0 
02375.313	-0.0203	-0.0042	0.9985	0.0000	0.0000	0.0000	-0.9723	4.0649	-17.4188	37.8900	-48	0	0 
02375.313	-0.0203	-0.0042	0.9985	0.0000	0.0000	0.0000	-0.9723	4.0649	-17.3749	37.8500	-48	0	0 
02375.333	-0.0203	-0.0042	0.9985	0.0000	0.0000	0.0000	-0.9723	4.0649	-17.3309	37.8500	-48	0	0 
02375.333	-0.0203	-0.0042	0.9985	0.0000	0.0000	0.0000	-0.9723	4.0594	-17.2815	37.8600	-48	0	0 
02375.333	-0.0203	-0.0042	0.9985	0.0000	0.0000	0.0000	-0.9668	4.0594	-17.2375	37.8600	-48	0	0 
02375.338	-0.0203	-0.0042	0.9985	0.0000	0.0000	0.0000	-0.9668	4.0594	-17.1936	37.8500	-47	0	0 
02375.338	-0.0203	-0.0042	0.9985	0.0000	0.0000	0.0000	-0.9668	4.0540	-17.1497	37.8500	-47	0	0 
02375.338	-0.0203	-0.0042	0.9985	0.0000	0.0000	0.0000	-0.9668	4.0540	-17.1057	37.8400	-47	0	0 
02375.345	-0.0203	-0.0044	0.9985	0.0000	0.0000	0.0000	-0.9668	4.0485	-17.0618	37.8400	-47	0	0 
02375.345	-0.0203	-0.0044	0.9985	0.0000	0.0000	0.0000	-0.9668	4.0485	-17.0178	37.8500	-47	0	0 
02375.345	-0.0203	-0.0044	0.9985	0.0000	0.0000	0.0000	-0.9668	4.0485	-16.9739	37.8500	-47	0	0 
02375.347	-0.0203	-0.0044	0.9985	0.0000	0.0000	0.0000	-0.9613	4.0430	-16.9299	37.9000	-47	0	0 
02375.347	-0.0203	-0.0044	0.9985	0.0000	0.0000	0.0000	-0.9613	4.0430	-16.8860	37.9000	-47	0	0 
02375.347	-0.0203	-0.0044	0.9985	0.0000	0.0000	0.0000	-0.9613	4.0430	-16.8420	37.9000	-48	0	0 
02375.352	-0.0203	-0.0044	0.9985	0.0000	0.0000	0.0000	-0.9613	4.0375	-16.7981	37.8300	-48	0	0 
02375.352	-0.0203	-0.0044	0.9985	0.0000	0.0000	0.0000	-0.9613	4.0375	-16.7542	37.8300	-47	0	0 
02375.352	-0.0200	-0.0044	0.9983	0.0000	0.0000	0.0000	-0.9613	4.0375	-16.7102	37.8300	-47	0	0 
02375.355	-0.0200	-0.0044	0.9983	0.0000	0.0000	0.0000	-0.9558	4.0320	-16.6663	37.8300	-47	0	0 
02375.355	-0.0200	-0.0044	0.9983	0.0000	0.0000	0.0000	-0.9558	4.0320	-16.6223	37.8300	-47	0	0 
02375.359	-0.0200	-0.0044	0.9983	0.0000	0.0000	0.0000	-0.9558	4.0265	-16.5784	37.8300	-47	0	0 
02375.359	-0.0200	-0.0044	0.9983	0.0000	0.0000	0.0000	-0.9558	4.0265	-16.5344	37.8500	-48	0	0 
02375.359	-0.0200	-0.0044	0.9983	0.0000	0.0000	0.0000	-0.9558	4.0265	-16.4960	37.8500	-48	0	0 
02375.363	-0.0200	-0.0044	0.9983	0.0000	0.0000	0.0000	-0.9558	4.0210	-16.4520	37.8200	-49	0	0 
02375.363	-0.0200	-0.0044	0.9983	0.0000	0.0000	0.0000	-0.9558	4.0210	-16.4081	37.8200	-49	0	0 
02375.363	-0.0203	-0.0044	0.9980	0.0000	0.0000	0.0000	-0.9503	4.0210	-16.3641	37.7900	-50	0	0 
02375.374	-0.0203	-0.0044	0.9980	0.0000	0.0000	0.0000	-0.9503	4.0155	-16.3257	37.7900	-51	0	0 
02375.374	-0.0203	-0.0044	0.9980	0.0000	0.0000	0.0000	-0.9503	4.0155	-16.2817	37.8300	-51	0	0 
02375.374	-0.0203	-0.0044	0.9980	0.0000	0.0000	0.0000	-0.9503	4.0155	-16.2378	37.8300	-51	0	0 
02375.390	-0.0203	-0.0044	0.9980	0.0000	0.0000	0.0000	-0.9503	4.0100	-16.1993	37.8200	-52	0	0 
02375.390	-0.0203	-0.0044	0.9980	0.0000	0.0000	0.0000	-0.9503	4.0100	-16.1554	37.8200	-52	0	0 
02375.390	-0.0203	-0.0044	0.9980	0.0000	0.0000	0.0000	-0.9503	4.0100	-16.1115	37.8200	-52	0	0 
02375.413	-0.0203	-0.0044	0.9980	0.0000	0.0000	0.0000	-0.9448	4.0045	-16.0730	37.8500	-51	0	0 
02375.413	-0.0200	-0.0042	0.9980	0.0000	0.0000	0.0000	-0.9448	4.0045	-16.0291	37.8500	-51	0	0 
02375.413	-0.0200	-0.0042	0.9980	0.0000	0.0000	0.0000	-0.9448	4.0045	-15.9906	37.9200	-51	0	0 
02375.422	-0.0200	-0.0042	0.9980	0.0000	0.0000	0.0000	-0.9448	3.9990	-15.9467	37.9200	-52	0	0 
02375.422	-0.0200	-0.0042	0.9980	0.0000	0.0000	0.0000	-0.9448	3.9990	-15.9082	37.8300	-53	0	0 
02375.422	-0.0200	-0.0042	0.9980	0.0000	0.0000	0.0000	-0.9448	3.9990	-15.8643	37.8300	-53	0	0 
02375.428	-0.0200	-0.0042	0.9980	0.0000	0.0000	0.0000	-0.9393	3.9935	-15.8258	37.9200	-53	0	0 
02375.428	-0.0200	-0.0042	0.9980	0.0000	0.0000	0.0000	-0.9393	3.9935	-15.7874	37.9200	-53	0	0 
02375.428	-0.0200	-0.0042	0.9980	0.0000	0.0000	0.0000	-0.9393	3.9935	-15.7434	37.8100	-52	0	0 
02375.433	-0.0198	-0.0042	0.9980	0.0000	0.0000	0.0000	-0.9393	3.9880	-15.7050	37.8100	-51	0	0 
02375.433	-0.0198	-0.0042	0.9980	0.0000	0.0000	0.0000	-0.9393	3.9880	-15.6665	37.8600	-51	0	0 
02375.433	-0.0198	-0.0042	0.9980	0.0000	0.0000	0.0000	-0.9393	3.9825	-15.6226	37.8600	-51	0	0 
02375.441	-0.0198	-0.0042	0.9980	0.0000	0.0000	0.0000	-0.9393	3.9825	-15.5841	37.9200	-51	0	0 
02375.441	-0.0198	-0.0042	0.9980	0.0000	0.0000	0.0000	-0.9338	3.9825	-15.5457	37.9200	-52	0	0 
02375.469	-0.0198	-0.0042	0.9980	0.0000	0.0000	0.0000	-0.9338	3.9771	-15.5017	37.9000	-53	0	0 
02375.469	-0.0198	-0.0042	0.9980	0.0000	0.0000	0.0000	-0.9338	3.9771	-15.4633	37.9000	-52	0	0 
02375.469	-0.0198	-0.0042	0.9980	0.0000	0.0000	0.0000	-0.9338	3.9771	-15.4248	37.9000	-51	0	0 
02375.475	-0.0195	-0.0039	0.9980	0.0000	0.0000	0.0000	-0.9338	3.9716	-15.3864	37.9100	-50	0	0 
02375.475	-0.0195	-0.0039	0.9980	0.0000	0.0000	0.0000	-0.9338	3.9716	-15.3479	37.9100	-49	0	0 
02375.475	-0.0195	-0.0039	0.9980	0.0000	0.0000	0.0000	-0.9338	3.9716	-15.3040	37.8200	-50	0	0 
02375.475	-0.0195	-0.0039	0.9980	0.0000	0.0000	0.0000	-0.9283	3.9661	-15.2655	37.8200	-51	0	0 
02375.475	-0.0195	-0.0039	0.9980	0.0000	0.0000	0.0000	-0.9283	3.9661	-15.2271	37.8400	-51	0	0 
02375.475	-0.0195	-0.0039	0.9980	0.0000	0.0000	0.0000	-0.9283	3.9661	-15.1886	37.8400	-51	0	0 
02375.475	-0.0195	-0.0039	0.9980	0.0000	0.0000	0.0000	-0.9283	3.9606	-15.1501	37.8400	-51	0	0 
02375.475	-0.0195	-0.0039	0.9980	0.0000	0.0000	0.0000	-0.9283	3.9606	-15.1117	37.8400	-51	0	0 
02375.475	-0.0195	-0.0039	0.9980	0.0000	0.0000	0.0000	-0.9283	3.9606	-15.0732	37.8200	-51	0	0 
02375.477	-0.0195	-0.0039	0.9980	0.0000	0.0000	0.0000	-0.9283	3.9551	-15.0348	37.8200	-50	0	0 
02375.477	-0.0195	-0.0039	0.9980	0.0000	0.0000	0.0000	-0.9229	3.9551	-14.9963	37.8700	-50	0	0 
02375.477	-0.0195	-0.0039	0.9980	0.0000	0.0000	0.0000	-0.9229	3.9551	-14.9579	37.8700	-51	0	0 
02375.484	-0.0195	-0.0039	0.9980	0.0000	0.0000	0.0000	-0.9229	3.9496	-14.9194	37.8700	-50	0	0 
02375.484	-0.0195	-0.0039	0.9980	0.0000	0.0000	0.0000	-0.9229	3.9496	-14.8810	37.8700	-50	0	0 
02375.484	-0.0195	-0.0039	0.9980	0.0000	0.0000	0.0000	-0.9229	3.9496	-14.8425	37.8500	-50	0	0 
02375.499	-0.0195	-0.0039	0.9980	0.0000	0.0000	0.0000	-0.9229	3.9441	-14.8041	37.8500	-50	0	0 
02375.499	-0.0193	-0.0039	0.9980	0.0000	0.0000	0.0000	-0.9229	3.9441	-14.7711	37.8500	-49	0	0 
02375.500	-0.0193	-0.0039	0.9980	0.0000	0.0000	0.0000	-0.9174	3.9441	-14.7327	37.8400	-49	0	0 
02375.513	-0.0193	-0.0039	0.9980	0.0000	0.0000	0.0000	-0.9174	3.9386	-14.6942	37.8400	-49	0	0 
02375.513	-0.0193	-0.0039	0.9980	0.0000	0.0000	0.0000	-0.9174	3.9386	-14.6558	37.8800	-49	0	0 
02375.513	-0.0193	-0.0039	0.9980	0.0000	0.0000	0.0000	-0.9174	3.9386	-14.6173	37.8800	-49	0	0 
02375.534	-0.0193	-0.0039	0.9980	0.0000	0.0000	0.0000	-0.9174	3.9331	-14.5844	37.7900	-49	0	0 
02375.534	-0.0193	-0.0039	0.9980	0.0000	0.0000	0.0000	-0.9174	3.9331	-14.5459	37.7900	-49	0	0 
02375.546	-0.0193	-0.0039	0.9980	0.0000	0.0000	0.0000	-0.9174	3.9331	-14.5074	37.8000	-48	0	0 
02375.546	-0.0195	-0.0039	0.9983	0.0000	0.0000	0.0000	-0.9119	3.9276	-14.4690	37.8000	-48	0	0 
02375.546	-0.0195	-0.0039	0.9983	0.0000	0.0000	0.0000	-0.9119	3.9276	-14.4360	37.8600	-48	0	0 
02375.561	-0.0195	-0.0039	0.9983	0.0000	0.0000	0.0000	-0.9119	3.9276	-14.3976	37.8600	-49	0	0 
02375.561	-0.0195	-0.0039	0.9983	0.0000	0.0000	0.0000	-0.9119	3.9221	-14.3646	37.8100	-48	0	0 
02375.561	-0.0195	-0.0039	0.9983	0.0000	0.0000	0.0000	-0.9119	3.9221	-14.3262	37.8100	-47	0	0 
02375.568	-0.0195	-0.0039	0.9983	0.0000	0.0000	0.0000	-0.9119	3.9221	-14.2877	37.9100	-47	0	0 
02375.568	-0.0195	-0.0039	0.9983	0.0000	0.0000	0.0000	-0.9119	3.9166	-14.2548	37.9100	-47	0	0 
02375.568	-0.0195	-0.0039	0.9983	0.0000	0.0000	0.0000	-0.9119	3.9166	-14.2163	37.9100	-48	0	0 
02375.581	-0.0198	-0.0042	0.9985	0.0000	0.0000	0.0000	-0.9064	3.9166	-14.1833	37.8900	-48	0	0 
02375.581	-0.0198	-0.0042	0.9985	0.0000	0.0000	0.0000	-0.9064	3.9111	-14.1449	37.8900	-48	0	0 
02375.581	-0.0198	-0.0042	0.9985	0.0000	0.0000	0.0000	-0.9064	3.9111	-14.1119	37.8600	-47	0	0 
02375.592	-0.0198	-0.0042	0.9985	0.0000	0.0000	0.0000	-0.9064	3.9111	-14.0735	37.8600	-47	0	0 
02375.592	-0.0198	-0.0042	0.9985	0.0000	0.0000	0.0000	-0.9064	3.9111	-14.0405	37.8500	-47	0	0 
02375.592	-0.0198	-0.0042	0.9985	0.0000	0.0000	0.0000	-0.9064	3.9056	-14.0021	37.8500	-47	0	0 
02375.603	-0.0198	-0.0042	0.9985	0.0000	0.0000	0.0000	-0.9064	3.9056	-13.9691	37.8900	-47	0	0 
02375.603	-0.0198	-0.0042	0.9985	0.0000	0.0000	0.0000	-0.9064	3.9056	-13.9307	37.8900	-46	0	0 
02375.603	-0.0198	-0.0042	0.9988	0.0000	0.0000	0.0000	-0.9064	3.9001	-13.8977	37.8500	-46	0	0 
02375.655	-0.0198	-0.0042	0.9988	0.0000	0.0000	0.0000	-0.9009	3.9001	-13.8647	37.8500	-46	0	0 
02375.655	-0.0198	-0.0042	0.9988	0.0000	0.0000	0.0000	-0.9009	3.9001	-13.8263	37.8400	-46	0	0 
02375.655	-0.0198	-0.0042	0.9988	0.0000	0.0000	0.0000	-0.9009	3.8947	-13.7933	37.8400	-46	0	0 
02375.867	-0.0198	-0.0042	0.9988	0.0000	0.0000	0.0000	-0.9009	3.8947	-13.7604	37.8800	-46	0	0 
02375.867	-0.0198	-0.0042	0.9988	0.0000	0.0000	0.0000	-0.9009	3.8947	-13.7219	37.8800	-46	0	0 
02375.870	-0.0198	-0.0042	0.9988	0.0000	0.0000	0.0000	-0.9009	3.8892	-13.6890	37.8800	-46	0	0 
02375.870	-0.0198	-0.0042	0.9988	0.0000	0.0000	0.0000	-0.9009	3.8892	-13.6560	37.8800	-46	0	0 
02375.870	-0.0200	-0.0042	0.9988	0.0000	0.0000	0.0000	-0.9009	3.8892	-13.6230	37.8800	-46	0	0 
02375.870	-0.0200	-0.0042	0.9988	0.0000	0.0000	0.0000	-0.8954	3.8892	-13.5901	37.8500	-45	0	0 
02375.870	-0.0200	-0.0042	0.9988	0.0000	0.0000	0.0000	-0.8954	3.8837	-13.5516	37.8500	-44	0	0 
02375.871	-0.0200	-0.0042	0.9988	0.0000	0.0000	0.0000	-0.8954	3.8837	-13.5187	37.8000	-44	0	0 
02375.871	-0.0200	-0.0042	0.9988	0.0000	0.0000	0.0000	-0.8954	3.8837	-13.4857	37.8000	-44	0	0 
02375.871	-0.0200	-0.0042	0.9988	0.0000	0.0000	0.0000	-0.8954	3.8782	-13.4528	37.8300	-45	0	0 
02375.871	-0.0200	-0.0042	0.9988	0.0000	0.0000	0.0000	-0.8954	3.8782	-13.4198	37.8300	-45	0	0 
02375.871	-0.0200	-0.0042	0.9988	0.0000	0.0000	0.0000	-0.8954	3.8782	-13.3868	37.8700	-46	0	0 
02375.871	-0.0198	-0.0039	0.9988	0.0000	0.0000	0.0000	-0.8954	3.8782	-13.3539	37.8700	-46	0	0 
02375.871	-0.0198	-0.0039	0.9988	0.0000	0.0000	0.0000	-0.8954	3.8727	-13.3209	37.8100	-46	0	0 
02375.871	-0.0198	-0.0039	0.9988	0.0000	0.0000	0.0000	-0.8899	3.8727	-13.2825	37.8100	-46	0	0 
02375.871	-0.0198	-0.0039	0.9988	0.0000	0.0000	0.0000	-0.8899	3.8727	-13.2495	37.8100	-47	0	0 
02375.871	-0.0198	-0.0039	0.9988	0.0000	0.0000	0.0000	-0.8899	3.8672	-13.2166	37.8100	-47	0	0 
02375.871	-0.0198	-0.0039	0.9988	0.0000	0.0000	0.0000	-0.8899	3.8672	-13.1836	37.8500	-47	0	0 
02375.871	-0.0198	-0.0039	0.9988	0.0000	0.0000	0.0000	-0.8899	3.8672	-13.1506	37.8500	-48	0	0 
02375.871	-0.0198	-0.0039	0.9988	0.0000	0.0000	0.0000	-0.8899	3.8672	-13.1232	37.8200	-48	0	0 
02375.871	-0.0195	-0.0039	0.9983	0.0000	0.0000	0.0000	-0.8899	3.8617	-13.0902	37.8200	-49	0	0 
02375.871	-0.0195	-0.0039	0.9983	0.0000	0.0000	0.0000	-0.8899	3.8617	-13.0573	37.8200	-49	0	0 
02375.871	-0.0195	-0.0039	0.9983	0.0000	0.0000	0.0000	-0.8899	3.8617	-13.0243	37.8800	-48	0	0 
02375.871	-0.0195	-0.0039	0.9983	0.0000	0.0000	0.0000	-0.8844	3.8562	-12.9913	37.8800	-47	0	0 
02375.871	-0.0195	-0.0039	0.9983	0.0000	0.0000	0.0000	-0.8844	3.8562	-12.9584	37.8000	-47	0	0 
02375.874	-0.0195	-0.0039	0.9983	0.0000	0.0000	0.0000	-0.8844	3.8562	-12.9254	37.8000	-47	0	0 
