Time;ax;ay;az;wx;wy;wz;AngleX;AngleY;AngleZ;T 
724.465;0.0010;-0.0015;0.9927;0.0000;0.0000;0.0000;-0.0879;-0.0604;-61.5784;35.1100 
724.465;0.0010;-0.0015;0.9927;0.0000;0.0000;0.0000;-0.0879;-0.0604;-61.5784;35.1400 
724.465;0.0010;-0.0015;0.9927;0.0000;0.0000;0.0000;-0.0879;-0.0604;-61.5839;35.1400 
724.465;0.0010;-0.0015;0.9927;0.0000;0.0000;0.0000;-0.0879;-0.0604;-61.5839;35.1100 
724.465;0.0010;-0.0015;0.9927;0.0000;0.0000;0.0000;-0.0879;-0.0604;-61.5839;35.1100 
724.465;0.0010;-0.0015;0.9927;0.0000;0.0000;0.0000;-0.0879;-0.0604;-61.5839;35.1000 
724.465;0.0010;-0.0020;0.9927;0.0000;0.0000;0.0000;-0.0879;-0.0604;-61.5839;35.1000 
724.465;0.0010;-0.0020;0.9927;0.0000;0.0000;0.0000;-0.0879;-0.0604;-61.5839;35.1000 
724.465;0.0010;-0.0020;0.9927;0.0000;0.0000;0.0000;-0.0879;-0.0604;-61.5839;35.0800 
724.465;0.0010;-0.0020;0.9927;0.0000;0.0000;0.0000;-0.0879;-0.0604;-61.5839;35.0800 
724.465;0.0010;-0.0020;0.9927;0.0000;0.0000;0.0000;-0.0879;-0.0604;-61.5839;35.1100 
724.465;0.0010;-0.0020;0.9927;0.0000;0.0000;0.0000;-0.0879;-0.0604;-61.5839;35.1100 
724.465;0.0010;-0.0020;0.9927;0.0000;0.0000;0.0000;-0.0879;-0.0604;-61.5784;35.0900 
724.465;0.0010;-0.0020;0.9927;0.0000;0.0000;0.0000;-0.0934;-0.0604;-61.5784;35.0900 
724.465;0.0010;-0.0020;0.9922;0.0000;0.0000;0.0000;-0.0934;-0.0604;-61.5784;35.1500 
724.465;0.0010;-0.0020;0.9922;0.0000;0.0000;0.0000;-0.0934;-0.0604;-61.5784;35.1500 
724.465;0.0010;-0.0020;0.9922;0.0000;0.0000;0.0000;-0.0934;-0.0604;-61.5784;35.1000 
724.475;0.0010;-0.0020;0.9922;0.0000;0.0000;0.0000;-0.0934;-0.0604;-61.5729;35.1000 
724.475;0.0010;-0.0020;0.9922;0.0000;0.0000;0.0000;-0.0934;-0.0604;-61.5729;35.1500 
724.475;0.0010;-0.0020;0.9922;0.0000;0.0000;0.0000;-0.0934;-0.0604;-61.5674;35.1500 
724.475;0.0010;-0.0020;0.9922;0.0000;0.0000;0.0000;-0.0934;-0.0604;-61.5674;35.0900 
724.495;0.0010;-0.0015;0.9922;0.0000;0.0000;0.0000;-0.0934;-0.0604;-61.5619;35.0900 
724.495;0.0010;-0.0015;0.9922;0.0000;0.0000;0.0000;-0.0934;-0.0604;-61.5619;35.1300 
724.495;0.0010;-0.0015;0.9922;0.0000;0.0000;0.0000;-0.0934;-0.0604;-61.5564;35.1300 
724.495;0.0010;-0.0015;0.9922;0.0000;0.0000;0.0000;-0.0934;-0.0604;-61.5564;35.1300 
724.495;0.0010;-0.0015;0.9922;0.0000;0.0000;0.0000;-0.0934;-0.0604;-61.5509;35.1400 
724.495;0.0010;-0.0015;0.9922;0.0000;0.0000;0.0000;-0.0879;-0.0604;-61.5509;35.1400 
724.495;0.0010;-0.0015;0.9922;0.0000;0.0000;0.0000;-0.0879;-0.0604;-61.5454;35.1400 
724.495;0.0010;-0.0015;0.9922;0.0000;0.0000;0.0000;-0.0879;-0.0604;-61.5454;35.1400 
724.495;0.0010;-0.0015;0.9922;0.0000;0.0000;0.0000;-0.0879;-0.0604;-61.5454;35.1200 
724.495;0.0010;-0.0015;0.9922;0.0000;0.0000;0.0000;-0.0879;-0.0604;-61.5399;35.1200 
724.495;0.0010;-0.0015;0.9922;0.0000;0.0000;0.0000;-0.0879;-0.0604;-61.5399;35.2000 
724.495;0.0010;-0.0015;0.9922;0.0000;0.0000;0.0000;-0.0879;-0.0604;-61.5399;35.2000 
724.505;0.0010;-0.0015;0.9922;0.0000;0.0000;0.0000;-0.0879;-0.0604;-61.5399;35.1400 
724.505;0.0010;-0.0015;0.9922;0.0000;0.0000;0.0000;-0.0879;-0.0604;-61.5399;35.1400 
724.515;0.0010;-0.0015;0.9922;0.0000;0.0000;0.0000;-0.0879;-0.0604;-61.5399;35.1100 
724.515;0.0010;-0.0015;0.9922;0.0000;0.0000;0.0000;-0.0879;-0.0604;-61.5344;35.1100 
724.525;0.0010;-0.0020;0.9927;0.0000;0.0000;0.0000;-0.0879;-0.0604;-61.5344;35.1000 
724.525;0.0010;-0.0020;0.9927;0.0000;0.0000;0.0000;-0.0879;-0.0604;-61.5399;35.1000 
724.615;0.0010;-0.0020;0.9927;0.0000;0.0000;0.0000;-0.0879;-0.0604;-61.5399;35.1300 
724.615;0.0010;-0.0020;0.9927;0.0000;0.0000;0.0000;-0.0879;-0.0604;-61.5399;35.1300 
724.625;0.0010;-0.0020;0.9927;0.0000;0.0000;0.0000;-0.0879;-0.0604;-61.5399;35.1300 
724.625;0.0010;-0.0020;0.9927;0.0000;0.0000;0.0000;-0.0879;-0.0604;-61.5344;35.1100 
724.625;0.0010;-0.0020;0.9927;0.0000;0.0000;0.0000;-0.0879;-0.0604;-61.5344;35.1100 
724.625;0.0010;-0.0020;0.9927;0.0000;0.0000;0.0000;-0.0879;-0.0604;-61.5344;35.1200 
724.625;0.0010;-0.0010;0.9927;0.0000;0.0000;0.0000;-0.0879;-0.0604;-61.5344;35.1200 
724.625;0.0010;-0.0010;0.9927;0.0000;0.0000;0.0000;-0.0879;-0.0604;-61.5289;35.1100 
724.625;0.0010;-0.0010;0.9927;0.0000;0.0000;0.0000;-0.0879;-0.0604;-61.5289;35.1100 
724.625;0.0010;-0.0010;0.9927;0.0000;0.0000;0.0000;-0.0879;-0.0604;-61.5289;35.1100 
724.625;0.0010;-0.0010;0.9927;0.0000;0.0000;0.0000;-0.0879;-0.0604;-61.5289;35.1100 
724.625;0.0010;-0.0010;0.9927;0.0000;0.0000;0.0000;-0.0879;-0.0604;-61.5289;35.1400 
724.625;0.0010;-0.0010;0.9927;0.0000;0.0000;0.0000;-0.0879;-0.0604;-61.5289;35.1400 
724.625;0.0010;-0.0010;0.9927;0.0000;0.0000;0.0000;-0.0879;-0.0604;-61.5289;35.1200 
724.625;0.0010;-0.0010;0.9937;0.0000;0.0000;0.0000;-0.0879;-0.0604;-61.5289;35.1200 
724.625;0.0010;-0.0010;0.9937;0.0000;0.0000;0.0000;-0.0879;-0.0604;-61.5344;35.1400 
724.625;0.0010;-0.0010;0.9937;0.0000;0.0000;0.0000;-0.0879;-0.0604;-61.5344;35.1400 
724.625;0.0010;-0.0010;0.9937;0.0000;0.0000;0.0000;-0.0879;-0.0604;-61.5344;35.1400 
724.625;0.0010;-0.0010;0.9937;0.0000;0.0000;0.0000;-0.0879;-0.0604;-61.5399;35.1400 
724.635;0.0010;-0.0010;0.9937;0.0000;0.0000;0.0000;-0.0879;-0.0604;-61.5399;35.1400 
724.635;0.0010;-0.0010;0.9937;0.0000;0.0000;0.0000;-0.0879;-0.0604;-61.5399;35.1700 
724.645;0.0010;-0.0010;0.9937;0.0000;0.0000;0.0000;-0.0879;-0.0604;-61.5399;35.1700 
724.645;0.0005;-0.0010;0.9932;0.0000;0.0000;0.0000;-0.0879;-0.0604;-61.5399;35.0700 
724.655;0.0005;-0.0010;0.9932;0.0000;0.0000;0.0000;-0.0879;-0.0604;-61.5399;35.0700 
724.655;0.0005;-0.0010;0.9932;0.0000;0.0000;0.0000;-0.0879;-0.0604;-61.5399;35.1400 
724.675;0.0005;-0.0010;0.9932;0.0000;0.0000;0.0000;-0.0879;-0.0604;-61.5399;35.1400 
724.675;0.0005;-0.0010;0.9932;0.0000;0.0000;0.0000;-0.0879;-0.0604;-61.5399;35.1100 
724.675;0.0005;-0.0010;0.9932;0.0000;0.0000;0.0000;-0.0879;-0.0604;-61.5344;35.1100 
724.675;0.0005;-0.0010;0.9932;0.0000;0.0000;0.0000;-0.0879;-0.0604;-61.5344;35.1600 
724.685;0.0005;-0.0010;0.9932;0.0000;0.0000;0.0000;-0.0879;-0.0604;-61.5344;35.1600 
724.685;0.0010;-0.0010;0.9937;0.0000;0.0000;0.0000;-0.0879;-0.0604;-61.5344;35.0800 
724.705;0.0010;-0.0010;0.9937;0.0000;0.0000;0.0000;-0.0879;-0.0604;-61.5344;35.0800 
724.705;0.0010;-0.0010;0.9937;0.0000;0.0000;0.0000;-0.0879;-0.0604;-61.5344;35.0500 
724.725;0.0010;-0.0010;0.9937;0.0000;0.0000;0.0000;-0.0879;-0.0604;-61.5344;35.0500 
724.725;0.0010;-0.0010;0.9937;0.0000;0.0000;0.0000;-0.0879;-0.0604;-61.5289;35.0500 
724.725;0.0010;-0.0010;0.9937;0.0000;0.0000;0.0000;-0.0879;-0.0604;-61.5289;35.1100 
724.725;0.0010;-0.0010;0.9937;0.0000;0.0000;0.0000;-0.0879;-0.0604;-61.5289;35.1100 
724.725;0.0010;-0.0010;0.9937;0.0000;0.0000;0.0000;-0.0879;-0.0604;-61.5289;35.1000 
724.815;0.0010;-0.0010;0.9937;0.0000;0.0000;0.0000;-0.0879;-0.0604;-61.5289;35.1000 
724.815;0.0010;-0.0010;0.9937;0.0000;0.0000;0.0000;-0.0879;-0.0604;-61.5289;35.2000 
724.825;0.0010;-0.0010;0.9937;0.0000;0.0000;0.0000;-0.0879;-0.0604;-61.5289;35.2000 
724.825;0.0010;-0.0010;0.9937;0.0000;0.0000;0.0000;-0.0879;-0.0604;-61.5289;35.1400 
724.825;0.0010;-0.0010;0.9937;0.0000;0.0000;0.0000;-0.0879;-0.0604;-61.5289;35.1400 
724.825;0.0010;-0.0010;0.9937;0.0000;0.0000;0.0000;-0.0879;-0.0604;-61.5289;35.1200 
724.825;0.0010;-0.0010;0.9937;0.0000;0.0000;0.0000;-0.0879;-0.0604;-61.5289;35.1200 
724.825;0.0010;-0.0010;0.9937;0.0000;0.0000;0.0000;-0.0879;-0.0604;-61.5289;35.1500 
724.825;0.0010;-0.0015;0.9937;0.0000;0.0000;0.0000;-0.0879;-0.0604;-61.5289;35.1500 
724.825;0.0010;-0.0015;0.9937;0.0000;0.0000;0.0000;-0.0879;-0.0604;-61.5289;35.0800 
724.825;0.0010;-0.0015;0.9937;0.0000;0.0000;0.0000;-0.0879;-0.0604;-61.5289;35.0800 
724.825;0.0010;-0.0015;0.9937;0.0000;0.0000;0.0000;-0.0879;-0.0604;-61.5289;35.1100 
724.825;0.0010;-0.0015;0.9937;0.0000;0.0000;0.0000;-0.0879;-0.0604;-61.5289;35.1100 
724.825;0.0010;-0.0015;0.9937;0.0000;0.0000;0.0000;-0.0879;-0.0604;-61.5289;35.1100 
724.825;0.0010;-0.0015;0.9937;0.0000;0.0000;0.0000;-0.0879;-0.0604;-61.5289;35.1700 
724.825;0.0010;-0.0015;0.9937;0.0000;0.0000;0.0000;-0.0879;-0.0604;-61.5344;35.1700 
724.835;0.0010;-0.0015;0.9927;0.0000;0.0000;0.0000;-0.0824;-0.0604;-61.5344;35.1000 
724.835;0.0010;-0.0015;0.9927;0.0000;0.0000;0.0000;-0.0824;-0.0604;-61.5344;35.1000 
724.835;0.0010;-0.0015;0.9927;0.0000;0.0000;0.0000;-0.0824;-0.0604;-61.5344;35.1100 
724.835;0.0010;-0.0015;0.9927;0.0000;0.0000;0.0000;-0.0824;-0.0604;-61.5344;35.1100 
724.845;0.0010;-0.0015;0.9927;0.0000;0.0000;0.0000;-0.0824;-0.0604;-61.5344;35.1000 
724.845;0.0010;-0.0015;0.9927;0.0000;0.0000;0.0000;-0.0824;-0.0604;-61.5344;35.1000 
724.845;0.0010;-0.0015;0.9927;0.0000;0.0000;0.0000;-0.0824;-0.0604;-61.5344;35.1400 
724.845;0.0010;-0.0015;0.9927;0.0000;0.0000;0.0000;-0.0824;-0.0604;-61.5344;35.1400 
724.865;0.0010;-0.0020;0.9927;0.0000;0.0000;0.0000;-0.0824;-0.0604;-61.5344;35.1700 
724.865;0.0010;-0.0020;0.9927;0.0000;0.0000;0.0000;-0.0824;-0.0604;-61.5344;35.1700 
724.865;0.0010;-0.0020;0.9927;0.0000;0.0000;0.0000;-0.0824;-0.0604;-61.5344;35.0500 
724.865;0.0010;-0.0020;0.9927;0.0000;0.0000;0.0000;-0.0824;-0.0604;-61.5344;35.0500 
724.875;0.0010;-0.0020;0.9927;0.0000;0.0000;0.0000;-0.0879;-0.0604;-61.5344;35.1500 
724.875;0.0010;-0.0020;0.9927;0.0000;0.0000;0.0000;-0.0879;-0.0604;-61.5344;35.1500 
724.885;0.0010;-0.0020;0.9927;0.0000;0.0000;0.0000;-0.0879;-0.0604;-61.5289;35.1500 
724.895;0.0010;-0.0020;0.9927;0.0000;0.0000;0.0000;-0.0879;-0.0604;-61.5289;35.1300 
724.895;0.0005;-0.0020;0.9922;0.0000;0.0000;0.0000;-0.0879;-0.0604;-61.5289;35.1300 
724.905;0.0005;-0.0020;0.9922;0.0000;0.0000;0.0000;-0.0879;-0.0604;-61.5289;35.1400 
724.905;0.0005;-0.0020;0.9922;0.0000;0.0000;0.0000;-0.0879;-0.0604;-61.5289;35.1400 
724.915;0.0005;-0.0020;0.9922;0.0000;0.0000;0.0000;-0.0879;-0.0604;-61.5289;35.1900 
724.915;0.0005;-0.0020;0.9922;0.0000;0.0000;0.0000;-0.0879;-0.0604;-61.5234;35.1900 
724.925;0.0005;-0.0020;0.9922;0.0000;0.0000;0.0000;-0.0879;-0.0604;-61.5289;35.0600 
724.925;0.0005;-0.0020;0.9922;0.0000;0.0000;0.0000;-0.0879;-0.0549;-61.5289;35.0600 
724.925;0.0005;-0.0020;0.9922;0.0000;0.0000;0.0000;-0.0879;-0.0549;-61.5289;35.1400 
724.925;0.0010;-0.0020;0.9922;0.0000;0.0000;0.0000;-0.0879;-0.0549;-61.5289;35.1400 
725.025;0.0010;-0.0020;0.9922;0.0000;0.0000;0.0000;-0.0879;-0.0549;-61.5289;35.1100 
725.025;0.0010;-0.0020;0.9922;0.0000;0.0000;0.0000;-0.0879;-0.0549;-61.5289;35.1100 
725.045;0.0010;-0.0020;0.9922;0.0000;0.0000;0.0000;-0.0879;-0.0549;-61.5289;35.1200 
725.045;0.0010;-0.0020;0.9922;0.0000;0.0000;0.0000;-0.0879;-0.0549;-61.5289;35.1200 
725.045;0.0010;-0.0020;0.9922;0.0000;0.0000;0.0000;-0.0879;-0.0549;-61.5289;35.1200 
725.045;0.0010;-0.0020;0.9922;0.0000;0.0000;0.0000;-0.0879;-0.0549;-61.5289;35.1700 
725.045;0.0010;-0.0020;0.9922;0.0000;0.0000;0.0000;-0.0879;-0.0549;-61.5289;35.1700 
725.045;0.0005;-0.0015;0.9927;0.0000;0.0000;0.0000;-0.0879;-0.0549;-61.5289;35.0900 
725.045;0.0005;-0.0015;0.9927;0.0000;0.0000;0.0000;-0.0879;-0.0549;-61.5289;35.0900 
725.045;0.0005;-0.0015;0.9927;0.0000;0.0000;0.0000;-0.0879;-0.0549;-61.5344;35.1100 
725.045;0.0005;-0.0015;0.9927;0.0000;0.0000;0.0000;-0.0879;-0.0549;-61.5344;35.1100 
725.045;0.0005;-0.0015;0.9927;0.0000;0.0000;0.0000;-0.0879;-0.0549;-61.5344;35.1300 
725.045;0.0005;-0.0015;0.9927;0.0000;0.0000;0.0000;-0.0879;-0.0549;-61.5344;35.1300 
725.045;0.0005;-0.0015;0.9927;0.0000;0.0000;0.0000;-0.0879;-0.0549;-61.5344;35.1500 
725.045;0.0005;-0.0015;0.9927;0.0000;0.0000;0.0000;-0.0879;-0.0549;-61.5344;35.1500 
725.045;0.0005;-0.0015;0.9932;0.0000;0.0000;0.0000;-0.0879;-0.0549;-61.5399;35.0900 
725.045;0.0005;-0.0015;0.9932;0.0000;0.0000;0.0000;-0.0879;-0.0549;-61.5399;35.0900 
725.045;0.0005;-0.0015;0.9932;0.0000;0.0000;0.0000;-0.0879;-0.0549;-61.5399;35.1700 
725.045;0.0005;-0.0015;0.9932;0.0000;0.0000;0.0000;-0.0879;-0.0549;-61.5399;35.1700 
725.045;0.0005;-0.0015;0.9932;0.0000;0.0000;0.0000;-0.0879;-0.0549;-61.5399;35.1400 
725.045;0.0005;-0.0015;0.9932;0.0000;0.0000;0.0000;-0.0879;-0.0549;-61.5399;35.1400 
725.045;0.0005;-0.0015;0.9932;0.0000;0.0000;0.0000;-0.0879;-0.0549;-61.5399;35.1400 
725.045;0.0005;-0.0015;0.9932;0.0000;0.0000;0.0000;-0.0879;-0.0549;-61.5454;35.0400 
725.065;0.0005;-0.0015;0.9937;0.0000;0.0000;0.0000;-0.0879;-0.0549;-61.5454;35.0400 
725.065;0.0005;-0.0015;0.9937;0.0000;0.0000;0.0000;-0.0879;-0.0549;-61.5454;35.0700 
725.075;0.0005;-0.0015;0.9937;0.0000;0.0000;0.0000;-0.0879;-0.0549;-61.5454;35.0700 
725.075;0.0005;-0.0015;0.9937;0.0000;0.0000;0.0000;-0.0879;-0.0549;-61.5454;35.1700 
725.075;0.0005;-0.0015;0.9937;0.0000;0.0000;0.0000;-0.0879;-0.0549;-61.5454;35.1700 
725.075;0.0005;-0.0015;0.9937;0.0000;0.0000;0.0000;-0.0879;-0.0549;-61.5454;35.1400 
725.095;0.0005;-0.0015;0.9937;0.0000;0.0000;0.0000;-0.0879;-0.0549;-61.5454;35.1400 
725.095;0.0005;-0.0015;0.9937;0.0000;0.0000;0.0000;-0.0879;-0.0549;-61.5454;35.1200 
725.095;0.0005;-0.0015;0.9937;0.0000;0.0000;0.0000;-0.0879;-0.0549;-61.5454;35.1200 
725.095;0.0005;-0.0015;0.9937;0.0000;0.0000;0.0000;-0.0879;-0.0549;-61.5509;35.1100 
725.105;0.0005;-0.0015;0.9937;0.0000;0.0000;0.0000;-0.0879;-0.0549;-61.5509;35.1100 
725.105;0.0005;-0.0015;0.9937;0.0000;0.0000;0.0000;-0.0879;-0.0549;-61.5509;35.0900 
725.115;0.0005;-0.0015;0.9937;0.0000;0.0000;0.0000;-0.0824;-0.0549;-61.5509;35.0900 
725.115;0.0005;-0.0015;0.9937;0.0000;0.0000;0.0000;-0.0824;-0.0549;-61.5564;35.1800 
725.125;0.0005;-0.0015;0.9937;0.0000;0.0000;0.0000;-0.0824;-0.0549;-61.5564;35.1800 
725.125;0.0005;-0.0015;0.9937;0.0000;0.0000;0.0000;-0.0824;-0.0549;-61.5564;35.1800 
725.135;0.0015;-0.0024;0.9941;0.0000;0.0000;0.0000;-0.0879;-0.0549;-61.5619;35.1600 
725.135;0.0015;-0.0024;0.9941;0.0000;0.0000;0.0000;-0.0879;-0.0549;-61.5619;35.1600 
725.224;0.0015;-0.0024;0.9941;0.0000;0.0000;0.0000;-0.0879;-0.0549;-61.5619;35.1900 
725.224;0.0015;-0.0024;0.9941;0.0000;0.0000;0.0000;-0.0879;-0.0549;-61.5619;35.1900 
725.235;0.0015;-0.0024;0.9941;0.0000;0.0000;0.0000;-0.0879;-0.0549;-61.5619;35.1300 
725.235;0.0015;-0.0024;0.9941;0.0000;0.0000;0.0000;-0.0879;-0.0549;-61.5619;35.1300 
725.235;0.0015;-0.0024;0.9941;0.0000;0.0000;0.0000;-0.0879;-0.0549;-61.5619;35.1600 
725.235;0.0015;-0.0024;0.9941;0.0000;0.0000;0.0000;-0.0879;-0.0549;-61.5619;35.1600 
725.235;0.0010;-0.0024;0.9932;0.0000;0.0000;0.0000;-0.0879;-0.0549;-61.5619;35.1800 
725.235;0.0010;-0.0024;0.9932;0.0000;0.0000;0.0000;-0.0879;-0.0549;-61.5619;35.1800 
725.235;0.0010;-0.0024;0.9932;0.0000;0.0000;0.0000;-0.0879;-0.0549;-61.5619;35.1100 
725.235;0.0010;-0.0024;0.9932;0.0000;0.0000;0.0000;-0.0879;-0.0549;-61.5619;35.1100 
725.235;0.0010;-0.0024;0.9932;0.0000;0.0000;0.0000;-0.0879;-0.0549;-61.5619;35.1100 
725.235;0.0010;-0.0024;0.9932;0.0000;0.0000;0.0000;-0.0879;-0.0549;-61.5619;35.1100 
725.235;0.0010;-0.0024;0.9932;0.0000;0.0000;0.0000;-0.0879;-0.0549;-61.5619;35.2200 
725.235;0.0010;-0.0024;0.9932;0.0000;0.0000;0.0000;-0.0879;-0.0549;-61.5619;35.2200 
725.235;0.0015;-0.0024;0.9932;0.0000;0.0000;0.0000;-0.0879;-0.0549;-61.5619;35.2200 
725.235;0.0015;-0.0024;0.9932;0.0000;0.0000;0.0000;-0.0879;-0.0549;-61.5619;35.1100 
725.235;0.0015;-0.0024;0.9932;0.0000;0.0000;0.0000;-0.0879;-0.0549;-61.5619;35.1100 
725.235;0.0015;-0.0024;0.9932;0.0000;0.0000;0.0000;-0.0879;-0.0549;-61.5619;35.1700 
725.235;0.0015;-0.0024;0.9932;0.0000;0.0000;0.0000;-0.0879;-0.0549;-61.5619;35.1700 
725.244;0.0015;-0.0024;0.9932;0.0000;0.0000;0.0000;-0.0879;-0.0549;-61.5619;35.0800 
725.244;0.0015;-0.0024;0.9932;0.0000;0.0000;0.0000;-0.0879;-0.0549;-61.5619;35.0800 
725.244;0.0015;-0.0024;0.9932;0.0000;0.0000;0.0000;-0.0879;-0.0549;-61.5619;35.1600 
725.244;0.0015;-0.0020;0.9932;0.0000;0.0000;0.0000;-0.0879;-0.0549;-61.5619;35.1600 
725.255;0.0015;-0.0020;0.9932;0.0000;0.0000;0.0000;-0.0879;-0.0549;-61.5619;35.1800 
725.255;0.0015;-0.0020;0.9932;0.0000;0.0000;0.0000;-0.0879;-0.0549;-61.5619;35.1800 
725.264;0.0015;-0.0020;0.9932;0.0000;0.0000;0.0000;-0.0879;-0.0549;-61.5619;35.1400 
725.264;0.0015;-0.0020;0.9932;0.0000;0.0000;0.0000;-0.0879;-0.0549;-61.5619;35.1400 
725.274;0.0015;-0.0020;0.9932;0.0000;0.0000;0.0000;-0.0879;-0.0549;-61.5619;35.1300 
725.274;0.0015;-0.0020;0.9932;0.0000;0.0000;0.0000;-0.0879;-0.0549;-61.5619;35.1300 
725.294;0.0015;-0.0020;0.9932;0.0000;0.0000;0.0000;-0.0879;-0.0549;-61.5619;35.1200 
725.294;0.0010;-0.0015;0.9927;0.0000;0.0000;0.0000;-0.0879;-0.0549;-61.5619;35.1200 
725.304;0.0010;-0.0015;0.9927;0.0000;0.0000;0.0000;-0.0879;-0.0549;-61.5619;35.1200 
725.304;0.0010;-0.0015;0.9927;0.0000;0.0000;0.0000;-0.0879;-0.0549;-61.5619;35.1500 
725.304;0.0010;-0.0015;0.9927;0.0000;0.0000;0.0000;-0.0879;-0.0549;-61.5619;35.1500 
725.304;0.0010;-0.0015;0.9927;0.0000;0.0000;0.0000;-0.0879;-0.0549;-61.5619;35.1600 
725.314;0.0010;-0.0015;0.9927;0.0000;0.0000;0.0000;-0.0879;-0.0549;-61.5619;35.1600 
725.314;0.0010;-0.0015;0.9927;0.0000;0.0000;0.0000;-0.0879;-0.0549;-61.5619;35.1300 
725.324;0.0010;-0.0015;0.9927;0.0000;0.0000;0.0000;-0.0879;-0.0549;-61.5619;35.1300 
725.324;0.0015;-0.0015;0.9932;0.0000;0.0000;0.0000;-0.0879;-0.0549;-61.5619;35.1400 
725.334;0.0015;-0.0015;0.9932;0.0000;0.0000;0.0000;-0.0879;-0.0549;-61.5619;35.1400 
725.334;0.0015;-0.0015;0.9932;0.0000;0.0000;0.0000;-0.0879;-0.0549;-61.5619;35.1300 
725.434;0.0015;-0.0015;0.9932;0.0000;0.0000;0.0000;-0.0879;-0.0549;-61.5564;35.1300 
725.434;0.0015;-0.0015;0.9932;0.0000;0.0000;0.0000;-0.0879;-0.0549;-61.5564;35.1400 
725.444;0.0015;-0.0015;0.9932;0.0000;0.0000;0.0000;-0.0879;-0.0549;-61.5564;35.1400 
725.444;0.0015;-0.0015;0.9932;0.0000;0.0000;0.0000;-0.0879;-0.0549;-61.5509;35.1800 
725.444;0.0015;-0.0015;0.9932;0.0000;0.0000;0.0000;-0.0879;-0.0549;-61.5509;35.1800 
725.444;0.0010;-0.0020;0.9932;0.0000;0.0000;0.0000;-0.0879;-0.0549;-61.5509;35.1800 
725.444;0.0010;-0.0020;0.9932;0.0000;0.0000;0.0000;-0.0879;-0.0549;-61.5454;35.1400 
725.444;0.0010;-0.0020;0.9932;0.0000;0.0000;0.0000;-0.0879;-0.0549;-61.5454;35.1400 
725.444;0.0010;-0.0020;0.9932;0.0000;0.0000;0.0000;-0.0879;-0.0549;-61.5399;35.1900 
725.444;0.0010;-0.0020;0.9932;0.0000;0.0000;0.0000;-0.0879;-0.0549;-61.5399;35.1900 
725.444;0.0010;-0.0020;0.9932;0.0000;0.0000;0.0000;-0.0879;-0.0549;-61.5399;35.1500 
725.444;0.0010;-0.0020;0.9932;0.0000;0.0000;0.0000;-0.0879;-0.0549;-61.5344;35.1500 
725.444;0.0010;-0.0020;0.9932;0.0000;0.0000;0.0000;-0.0879;-0.0549;-61.5344;35.0800 
725.444;0.0010;-0.0015;0.9932;0.0000;0.0000;0.0000;-0.0879;-0.0549;-61.5344;35.0800 
725.444;0.0010;-0.0015;0.9932;0.0000;0.0000;0.0000;-0.0879;-0.0549;-61.5344;35.2100 
725.444;0.0010;-0.0015;0.9932;0.0000;0.0000;0.0000;-0.0879;-0.0549;-61.5344;35.2100 
725.444;0.0010;-0.0015;0.9932;0.0000;0.0000;0.0000;-0.0879;-0.0549;-61.5344;35.1700 
725.444;0.0010;-0.0015;0.9932;0.0000;0.0000;0.0000;-0.0879;-0.0549;-61.5344;35.1700 
725.444;0.0010;-0.0015;0.9932;0.0000;0.0000;0.0000;-0.0879;-0.0549;-61.5344;35.1000 
725.444;0.0010;-0.0015;0.9932;0.0000;0.0000;0.0000;-0.0879;-0.0549;-61.5344;35.1000 
725.444;0.0010;-0.0015;0.9932;0.0000;0.0000;0.0000;-0.0879;-0.0549;-61.5289;35.1300 
725.454;0.0015;-0.0015;0.9937;0.0000;0.0000;0.0000;-0.0879;-0.0549;-61.5289;35.1300 
725.454;0.0015;-0.0015;0.9937;0.0000;0.0000;0.0000;-0.0879;-0.0549;-61.5289;35.1300 
725.464;0.0015;-0.0015;0.9937;0.0000;0.0000;0.0000;-0.0879;-0.0549;-61.5289;35.1300 
725.464;0.0015;-0.0015;0.9937;0.0000;0.0000;0.0000;-0.0879;-0.0549;-61.5289;35.1300 
725.474;0.0015;-0.0015;0.9937;0.0000;0.0000;0.0000;-0.0879;-0.0549;-61.5289;35.1700 
725.474;0.0015;-0.0015;0.9937;0.0000;0.0000;0.0000;-0.0879;-0.0549;-61.5289;35.1700 
725.484;0.0015;-0.0015;0.9937;0.0000;0.0000;0.0000;-0.0879;-0.0549;-61.5289;35.1500 
725.484;0.0015;-0.0015;0.9937;0.0000;0.0000;0.0000;-0.0879;-0.0549;-61.5289;35.1500 
725.494;0.0010;-0.0020;0.9937;0.0000;0.0000;0.0000;-0.0879;-0.0549;-61.5289;35.0800 
725.494;0.0010;-0.0020;0.9937;0.0000;0.0000;0.0000;-0.0879;-0.0549;-61.5289;35.0800 
725.504;0.0010;-0.0020;0.9937;0.0000;0.0000;0.0000;-0.0879;-0.0549;-61.5289;35.1100 
725.504;0.0010;-0.0020;0.9937;0.0000;0.0000;0.0000;-0.0879;-0.0549;-61.5289;35.1100 
725.514;0.0010;-0.0020;0.9937;0.0000;0.0000;0.0000;-0.0879;-0.0549;-61.5289;35.1300 
725.514;0.0010;-0.0020;0.9937;0.0000;0.0000;0.0000;-0.0879;-0.0549;-61.5289;35.1300 
725.534;0.0010;-0.0020;0.9937;0.0000;0.0000;0.0000;-0.0879;-0.0549;-61.5234;35.1200 
725.534;0.0010;-0.0020;0.9937;0.0000;0.0000;0.0000;-0.0879;-0.0549;-61.5234;35.1200 
725.634;0.0015;-0.0015;0.9941;0.0000;0.0000;0.0000;-0.0879;-0.0549;-61.5234;35.1400 
725.634;0.0015;-0.0015;0.9941;0.0000;0.0000;0.0000;-0.0879;-0.0549;-61.5179;35.1400 
725.634;0.0015;-0.0015;0.9941;0.0000;0.0000;0.0000;-0.0879;-0.0549;-61.5179;35.1400 
725.634;0.0015;-0.0015;0.9941;0.0000;0.0000;0.0000;-0.0879;-0.0549;-61.5179;35.0900 
725.634;0.0015;-0.0015;0.9941;0.0000;0.0000;0.0000;-0.0879;-0.0549;-61.5179;35.0900 
725.644;0.0015;-0.0015;0.9941;0.0000;0.0000;0.0000;-0.0879;-0.0549;-61.5179;35.1500 
725.644;0.0015;-0.0015;0.9941;0.0000;0.0000;0.0000;-0.0879;-0.0549;-61.5179;35.1500 
725.644;0.0015;-0.0015;0.9941;0.0000;0.0000;0.0000;-0.0879;-0.0549;-61.5179;35.1600 
725.644;0.0010;-0.0015;0.9937;0.0000;0.0000;0.0000;-0.0879;-0.0549;-61.5179;35.1600 
725.644;0.0010;-0.0015;0.9937;0.0000;0.0000;0.0000;-0.0879;-0.0549;-61.5125;35.1600 
725.644;0.0010;-0.0015;0.9937;0.0000;0.0000;0.0000;-0.0879;-0.0549;-61.5125;35.1600 
725.644;0.0010;-0.0015;0.9937;0.0000;0.0000;0.0000;-0.0879;-0.0549;-61.5125;35.1000 
725.644;0.0010;-0.0015;0.9937;0.0000;0.0000;0.0000;-0.0879;-0.0549;-61.5125;35.1000 
725.644;0.0010;-0.0015;0.9937;0.0000;0.0000;0.0000;-0.0879;-0.0549;-61.5125;35.1300 
725.644;0.0010;-0.0015;0.9937;0.0000;0.0000;0.0000;-0.0879;-0.0549;-61.5125;35.1300 
725.644;0.0010;-0.0015;0.9937;0.0000;0.0000;0.0000;-0.0879;-0.0549;-61.5125;35.1100 
725.644;0.0020;-0.0024;0.9937;0.0000;0.0000;0.0000;-0.0879;-0.0549;-61.5125;35.1100 
725.644;0.0020;-0.0024;0.9937;0.0000;0.0000;0.0000;-0.0879;-0.0549;-61.5125;35.1200 
725.644;0.0020;-0.0024;0.9937;0.0000;0.0000;0.0000;-0.0879;-0.0549;-61.5125;35.1200 
725.644;0.0020;-0.0024;0.9937;0.0000;0.0000;0.0000;-0.0879;-0.0549;-61.5125;35.1200 
725.644;0.0020;-0.0024;0.9937;0.0000;0.0000;0.0000;-0.0879;-0.0604;-61.5125;35.1100 
725.654;0.0020;-0.0024;0.9937;0.0000;0.0000;0.0000;-0.0879;-0.0604;-61.5125;35.1100 
725.654;0.0020;-0.0024;0.9937;0.0000;0.0000;0.0000;-0.0879;-0.0604;-61.5125;35.1600 
725.664;0.0020;-0.0024;0.9937;0.0000;0.0000;0.0000;-0.0879;-0.0604;-61.5125;35.1600 
725.664;0.0010;-0.0020;0.9932;0.0000;0.0000;0.0000;-0.0879;-0.0604;-61.5070;35.1700 
725.674;0.0010;-0.0020;0.9932;0.0000;0.0000;0.0000;-0.0879;-0.0604;-61.5070;35.1700 
725.674;0.0010;-0.0020;0.9932;0.0000;0.0000;0.0000;-0.0879;-0.0604;-61.5070;35.1800 
725.704;0.0010;-0.0020;0.9932;0.0000;0.0000;0.0000;-0.0879;-0.0604;-61.5125;35.1800 
725.704;0.0010;-0.0020;0.9932;0.0000;0.0000;0.0000;-0.0879;-0.0604;-61.5125;35.2000 
725.714;0.0010;-0.0020;0.9932;0.0000;0.0000;0.0000;-0.0879;-0.0604;-61.5125;35.2000 
725.714;0.0010;-0.0020;0.9932;0.0000;0.0000;0.0000;-0.0879;-0.0604;-61.5125;35.1600 
725.714;0.0010;-0.0020;0.9932;0.0000;0.0000;0.0000;-0.0879;-0.0604;-61.5125;35.1600 
725.714;0.0020;-0.0015;0.9937;0.0000;0.0000;0.0000;-0.0879;-0.0604;-61.5125;35.1700 
725.714;0.0020;-0.0015;0.9937;0.0000;0.0000;0.0000;-0.0879;-0.0604;-61.5125;35.1700 
725.714;0.0020;-0.0015;0.9937;0.0000;0.0000;0.0000;-0.0879;-0.0604;-61.5125;35.1100 
725.724;0.0020;-0.0015;0.9937;0.0000;0.0000;0.0000;-0.0879;-0.0604;-61.5125;35.1100 
725.724;0.0020;-0.0015;0.9937;0.0000;0.0000;0.0000;-0.0879;-0.0604;-61.5125;35.1100 
725.724;0.0020;-0.0015;0.9937;0.0000;0.0000;0.0000;-0.0879;-0.0604;-61.5125;35.1300 
725.724;0.0020;-0.0015;0.9937;0.0000;0.0000;0.0000;-0.0879;-0.0604;-61.5125;35.1300 
725.724;0.0020;-0.0015;0.9937;0.0000;0.0000;0.0000;-0.0879;-0.0604;-61.5125;35.1100 
725.744;0.0015;-0.0020;0.9927;0.0000;0.0000;0.0000;-0.0879;-0.0604;-61.5179;35.1100 
725.744;0.0015;-0.0020;0.9927;0.0000;0.0000;0.0000;-0.0879;-0.0604;-61.5179;35.1200 
725.744;0.0015;-0.0020;0.9927;0.0000;0.0000;0.0000;-0.0879;-0.0604;-61.5125;35.1200 
725.744;0.0015;-0.0020;0.9927;0.0000;0.0000;0.0000;-0.0879;-0.0604;-61.5125;35.1700 
725.834;0.0015;-0.0020;0.9927;0.0000;0.0000;0.0000;-0.0879;-0.0604;-61.5070;35.1700 
725.834;0.0015;-0.0020;0.9927;0.0000;0.0000;0.0000;-0.0879;-0.0604;-61.5070;35.1700 
725.854;0.0015;-0.0020;0.9927;0.0000;0.0000;0.0000;-0.0879;-0.0604;-61.5070;35.1700 
725.854;0.0015;-0.0020;0.9927;0.0000;0.0000;0.0000;-0.0879;-0.0604;-61.5015;35.1500 
725.854;0.0015;-0.0020;0.9932;0.0000;0.0000;0.0000;-0.0879;-0.0604;-61.5015;35.1500 
725.854;0.0015;-0.0020;0.9932;0.0000;0.0000;0.0000;-0.0879;-0.0604;-61.5015;35.0900 
725.854;0.0015;-0.0020;0.9932;0.0000;0.0000;0.0000;-0.0879;-0.0604;-61.5015;35.0900 
725.854;0.0015;-0.0020;0.9932;0.0000;0.0000;0.0000;-0.0879;-0.0604;-61.5015;35.0900 
725.854;0.0015;-0.0020;0.9932;0.0000;0.0000;0.0000;-0.0879;-0.0604;-61.4960;35.0800 
725.854;0.0015;-0.0020;0.9932;0.0000;0.0000;0.0000;-0.0879;-0.0604;-61.5015;35.0800 
725.854;0.0015;-0.0020;0.9932;0.0000;0.0000;0.0000;-0.0879;-0.0604;-61.5015;35.0900 
725.854;0.0015;-0.0020;0.9932;0.0000;0.0000;0.0000;-0.0879;-0.0604;-61.5015;35.0900 
725.854;0.0015;-0.0015;0.9927;0.0000;0.0000;0.0000;-0.0879;-0.0604;-61.5070;35.1400 
725.854;0.0015;-0.0015;0.9927;0.0000;0.0000;0.0000;-0.0879;-0.0604;-61.5070;35.1400 
725.854;0.0015;-0.0015;0.9927;0.0000;0.0000;0.0000;-0.0879;-0.0604;-61.5070;35.1300 
725.854;0.0015;-0.0015;0.9927;0.0000;0.0000;0.0000;-0.0879;-0.0604;-61.5070;35.1300 
725.854;0.0015;-0.0015;0.9927;0.0000;0.0000;0.0000;-0.0879;-0.0604;-61.5070;35.1700 
725.854;0.0015;-0.0015;0.9927;0.0000;0.0000;0.0000;-0.0879;-0.0604;-61.5070;35.1700 
725.854;0.0015;-0.0015;0.9927;0.0000;0.0000;0.0000;-0.0879;-0.0604;-61.5125;35.1600 
725.854;0.0015;-0.0015;0.9927;0.0000;0.0000;0.0000;-0.0879;-0.0604;-61.5125;35.1600 
725.854;0.0010;-0.0024;0.9927;0.0000;0.0000;0.0000;-0.0879;-0.0604;-61.5125;35.0500 
725.854;0.0010;-0.0024;0.9927;0.0000;0.0000;0.0000;-0.0879;-0.0604;-61.5125;35.0500 
725.864;0.0010;-0.0024;0.9927;0.0000;0.0000;0.0000;-0.0879;-0.0604;-61.5125;35.1100 
725.884;0.0010;-0.0024;0.9927;0.0000;0.0000;0.0000;-0.0879;-0.0604;-61.5179;35.1100 
725.884;0.0010;-0.0024;0.9927;0.0000;0.0000;0.0000;-0.0879;-0.0604;-61.5179;35.1100 
725.884;0.0010;-0.0024;0.9927;0.0000;0.0000;0.0000;-0.0879;-0.0604;-61.5179;35.1100 
725.894;0.0010;-0.0024;0.9927;0.0000;0.0000;0.0000;-0.0879;-0.0604;-61.5234;35.1100 
725.904;0.0010;-0.0024;0.9927;0.0000;0.0000;0.0000;-0.0879;-0.0604;-61.5234;35.1800 
725.904;0.0010;-0.0020;0.9927;0.0000;0.0000;0.0000;-0.0879;-0.0604;-61.5234;35.1800 
725.904;0.0010;-0.0020;0.9927;0.0000;0.0000;0.0000;-0.0879;-0.0604;-61.5234;35.1200 
725.904;0.0010;-0.0020;0.9927;0.0000;0.0000;0.0000;-0.0879;-0.0604;-61.5234;35.1200 
725.904;0.0010;-0.0020;0.9927;0.0000;0.0000;0.0000;-0.0879;-0.0604;-61.5234;35.1400 
725.904;0.0010;-0.0020;0.9927;0.0000;0.0000;0.0000;-0.0879;-0.0604;-61.5234;35.1400 
725.914;0.0010;-0.0020;0.9927;0.0000;0.0000;0.0000;-0.0879;-0.0604;-61.5234;35.1200 
725.914;0.0010;-0.0020;0.9927;0.0000;0.0000;0.0000;-0.0879;-0.0604;-61.5234;35.1200 
725.924;0.0010;-0.0020;0.9927;0.0000;0.0000;0.0000;-0.0879;-0.0604;-61.5234;35.1600 
725.924;0.0010;-0.0015;0.9932;0.0000;0.0000;0.0000;-0.0879;-0.0604;-61.5289;35.1600 
725.934;0.0010;-0.0015;0.9932;0.0000;0.0000;0.0000;-0.0879;-0.0604;-61.5289;35.1900 
725.934;0.0010;-0.0015;0.9932;0.0000;0.0000;0.0000;-0.0879;-0.0604;-61.5289;35.1900 
726.034;0.0010;-0.0015;0.9932;0.0000;0.0000;0.0000;-0.0879;-0.0604;-61.5289;35.1000 
726.034;0.0010;-0.0015;0.9932;0.0000;0.0000;0.0000;-0.0879;-0.0604;-61.5289;35.1000 
726.034;0.0010;-0.0015;0.9932;0.0000;0.0000;0.0000;-0.0879;-0.0604;-61.5289;35.1000 
726.034;0.0010;-0.0015;0.9932;0.0000;0.0000;0.0000;-0.0879;-0.0604;-61.5289;35.1300 
726.054;0.0010;-0.0015;0.9932;0.0000;0.0000;0.0000;-0.0879;-0.0604;-61.5289;35.1300 
726.054;0.0010;-0.0015;0.9932;0.0000;0.0000;0.0000;-0.0879;-0.0604;-61.5289;35.1000 
726.054;0.0010;-0.0015;0.9932;0.0000;0.0000;0.0000;-0.0879;-0.0604;-61.5289;35.1000 
726.054;0.0010;-0.0015;0.9932;0.0000;0.0000;0.0000;-0.0879;-0.0604;-61.5289;35.1400 
726.054;0.0010;-0.0015;0.9932;0.0000;0.0000;0.0000;-0.0879;-0.0604;-61.5289;35.1400 
726.054;0.0010;-0.0015;0.9932;0.0000;0.0000;0.0000;-0.0879;-0.0604;-61.5289;35.2000 
726.054;0.0010;-0.0015;0.9932;0.0000;0.0000;0.0000;-0.0879;-0.0604;-61.5289;35.2000 
726.054;0.0010;-0.0015;0.9932;0.0000;0.0000;0.0000;-0.0879;-0.0604;-61.5289;35.1600 
726.054;0.0010;-0.0015;0.9932;0.0000;0.0000;0.0000;-0.0879;-0.0604;-61.5344;35.1600 
726.054;0.0010;-0.0015;0.9932;0.0000;0.0000;0.0000;-0.0879;-0.0604;-61.5344;35.1400 
726.054;0.0010;-0.0015;0.9932;0.0000;0.0000;0.0000;-0.0879;-0.0604;-61.5344;35.1400 
726.054;0.0010;-0.0015;0.9932;0.0000;0.0000;0.0000;-0.0879;-0.0604;-61.5344;35.0900 
726.054;0.0010;-0.0015;0.9932;0.0000;0.0000;0.0000;-0.0879;-0.0604;-61.5344;35.0900 
726.054;0.0010;-0.0015;0.9932;0.0000;0.0000;0.0000;-0.0879;-0.0604;-61.5344;35.1200 
726.054;0.0010;-0.0015;0.9932;0.0000;0.0000;0.0000;-0.0879;-0.0604;-61.5399;35.1200 
726.054;0.0010;-0.0015;0.9932;0.0000;0.0000;0.0000;-0.0879;-0.0604;-61.5399;35.1200 
726.054;0.0010;-0.0015;0.9932;0.0000;0.0000;0.0000;-0.0879;-0.0604;-61.5399;35.1100 
726.054;0.0010;-0.0010;0.9937;0.0000;0.0000;0.0000;-0.0879;-0.0604;-61.5399;35.1100 
726.054;0.0010;-0.0010;0.9937;0.0000;0.0000;0.0000;-0.0879;-0.0604;-61.5454;35.1100 
726.074;0.0010;-0.0010;0.9937;0.0000;0.0000;0.0000;-0.0879;-0.0604;-61.5454;35.1100 
726.074;0.0010;-0.0010;0.9937;0.0000;0.0000;0.0000;-0.0879;-0.0604;-61.5454;35.1200 
726.074;0.0010;-0.0010;0.9937;0.0000;0.0000;0.0000;-0.0879;-0.0604;-61.5454;35.1200 
726.074;0.0010;-0.0010;0.9937;0.0000;0.0000;0.0000;-0.0879;-0.0604;-61.5454;35.1600 
726.084;0.0010;-0.0010;0.9937;0.0000;0.0000;0.0000;-0.0879;-0.0604;-61.5509;35.1600 
726.084;0.0010;-0.0010;0.9937;0.0000;0.0000;0.0000;-0.0879;-0.0604;-61.5509;35.1200 
726.104;0.0010;-0.0015;0.9932;0.0000;0.0000;0.0000;-0.0879;-0.0604;-61.5509;35.1200 
726.104;0.0010;-0.0015;0.9932;0.0000;0.0000;0.0000;-0.0879;-0.0604;-61.5509;35.1700 
726.104;0.0010;-0.0015;0.9932;0.0000;0.0000;0.0000;-0.0879;-0.0604;-61.5509;35.1700 
726.104;0.0010;-0.0015;0.9932;0.0000;0.0000;0.0000;-0.0879;-0.0604;-61.5509;35.1500 
726.134;0.0010;-0.0015;0.9932;0.0000;0.0000;0.0000;-0.0879;-0.0604;-61.5509;35.1500 
726.134;0.0010;-0.0015;0.9932;0.0000;0.0000;0.0000;-0.0879;-0.0604;-61.5509;35.1000 
726.144;0.0010;-0.0015;0.9932;0.0000;0.0000;0.0000;-0.0879;-0.0604;-61.5509;35.1000 
726.144;0.0010;-0.0015;0.9932;0.0000;0.0000;0.0000;-0.0879;-0.0604;-61.5564;35.1000 
726.144;0.0015;-0.0015;0.9937;0.0000;0.0000;0.0000;-0.0879;-0.0604;-61.5564;35.0700 
726.144;0.0015;-0.0015;0.9937;0.0000;0.0000;0.0000;-0.0879;-0.0604;-61.5564;35.0700 
726.144;0.0015;-0.0015;0.9937;0.0000;0.0000;0.0000;-0.0879;-0.0604;-61.5564;35.1400 
726.144;0.0015;-0.0015;0.9937;0.0000;0.0000;0.0000;-0.0879;-0.0604;-61.5564;35.1400 
726.244;0.0015;-0.0015;0.9937;0.0000;0.0000;0.0000;-0.0879;-0.0604;-61.5619;35.1600 
726.244;0.0015;-0.0015;0.9937;0.0000;0.0000;0.0000;-0.0879;-0.0604;-61.5619;35.1600 
726.254;0.0015;-0.0015;0.9937;0.0000;0.0000;0.0000;-0.0879;-0.0604;-61.5619;35.1100 
726.254;0.0015;-0.0015;0.9937;0.0000;0.0000;0.0000;-0.0879;-0.0604;-61.5619;35.1100 
726.254;0.0010;-0.0020;0.9932;0.0000;0.0000;0.0000;-0.0879;-0.0604;-61.5619;35.1000 
726.254;0.0010;-0.0020;0.9932;0.0000;0.0000;0.0000;-0.0879;-0.0604;-61.5619;35.1000 
726.254;0.0010;-0.0020;0.9932;0.0000;0.0000;0.0000;-0.0879;-0.0604;-61.5619;35.1600 
726.254;0.0010;-0.0020;0.9932;0.0000;0.0000;0.0000;-0.0879;-0.0604;-61.5619;35.1600 
726.254;0.0010;-0.0020;0.9932;0.0000;0.0000;0.0000;-0.0879;-0.0604;-61.5619;35.1200 
726.254;0.0010;-0.0020;0.9932;0.0000;0.0000;0.0000;-0.0879;-0.0604;-61.5619;35.1200 
726.254;0.0010;-0.0020;0.9932;0.0000;0.0000;0.0000;-0.0879;-0.0604;-61.5619;35.1200 
726.254;0.0010;-0.0020;0.9932;0.0000;0.0000;0.0000;-0.0879;-0.0604;-61.5619;35.1100 
726.254;0.0010;-0.0015;0.9937;0.0000;0.0000;0.0000;-0.0879;-0.0604;-61.5619;35.1100 
726.254;0.0010;-0.0015;0.9937;0.0000;0.0000;0.0000;-0.0879;-0.0604;-61.5619;35.1200 
726.254;0.0010;-0.0015;0.9937;0.0000;0.0000;0.0000;-0.0879;-0.0604;-61.5619;35.1200 
726.254;0.0010;-0.0015;0.9937;0.0000;0.0000;0.0000;-0.0879;-0.0604;-61.5619;35.1600 
726.254;0.0010;-0.0015;0.9937;0.0000;0.0000;0.0000;-0.0879;-0.0604;-61.5619;35.1600 
726.264;0.0010;-0.0015;0.9937;0.0000;0.0000;0.0000;-0.0879;-0.0604;-61.5564;35.1300 
726.264;0.0010;-0.0015;0.9937;0.0000;0.0000;0.0000;-0.0879;-0.0604;-61.5564;35.1300 
726.284;0.0010;-0.0015;0.9937;0.0000;0.0000;0.0000;-0.0879;-0.0604;-61.5564;35.1200 
726.284;0.0010;-0.0015;0.9932;0.0000;0.0000;0.0000;-0.0879;-0.0604;-61.5564;35.1200 
726.284;0.0010;-0.0015;0.9932;0.0000;0.0000;0.0000;-0.0879;-0.0604;-61.5564;35.1600 
726.284;0.0010;-0.0015;0.9932;0.0000;0.0000;0.0000;-0.0879;-0.0604;-61.5564;35.1600 
726.294;0.0010;-0.0015;0.9932;0.0000;0.0000;0.0000;-0.0879;-0.0604;-61.5564;35.1300 
726.294;0.0010;-0.0015;0.9932;0.0000;0.0000;0.0000;-0.0879;-0.0604;-61.5564;35.1300 
726.294;0.0010;-0.0015;0.9932;0.0000;0.0000;0.0000;-0.0879;-0.0604;-61.5619;35.1300 
726.294;0.0010;-0.0015;0.9932;0.0000;0.0000;0.0000;-0.0879;-0.0604;-61.5619;35.1300 
726.294;0.0010;-0.0015;0.9932;0.0000;0.0000;0.0000;-0.0879;-0.0604;-61.5674;35.1300 
726.294;0.0010;-0.0015;0.9932;0.0000;0.0000;0.0000;-0.0879;-0.0604;-61.5674;35.1300 
726.304;0.0010;-0.0015;0.9932;0.0000;0.0000;0.0000;-0.0879;-0.0604;-61.5729;35.1300 
726.304;0.0010;-0.0015;0.9932;0.0000;0.0000;0.0000;-0.0879;-0.0604;-61.5784;35.1600 
726.304;0.0010;-0.0015;0.9932;0.0000;0.0000;0.0000;-0.0879;-0.0604;-61.5784;35.1600 
726.304;0.0010;-0.0015;0.9932;0.0000;0.0000;0.0000;-0.0879;-0.0604;-61.5784;35.1500 
726.324;0.0010;-0.0015;0.9932;0.0000;0.0000;0.0000;-0.0879;-0.0604;-61.5839;35.1500 
726.324;0.0010;-0.0015;0.9932;0.0000;0.0000;0.0000;-0.0879;-0.0604;-61.5839;35.1100 
726.324;0.0010;-0.0015;0.9932;0.0000;0.0000;0.0000;-0.0879;-0.0604;-61.5839;35.1100 
726.334;0.0010;-0.0015;0.9927;0.0000;0.0000;0.0000;-0.0879;-0.0604;-61.5784;35.1600 
726.334;0.0010;-0.0015;0.9927;0.0000;0.0000;0.0000;-0.0879;-0.0604;-61.5784;35.1600 
726.364;0.0010;-0.0015;0.9927;0.0000;0.0000;0.0000;-0.0879;-0.0604;-61.5784;35.1700 
726.364;0.0010;-0.0015;0.9927;0.0000;0.0000;0.0000;-0.0879;-0.0604;-61.5784;35.1700 
726.434;0.0010;-0.0015;0.9927;0.0000;0.0000;0.0000;-0.0879;-0.0604;-61.5839;35.0700 
726.444;0.0010;-0.0015;0.9927;0.0000;0.0000;0.0000;-0.0879;-0.0604;-61.5839;35.0700 
726.444;0.0010;-0.0015;0.9927;0.0000;0.0000;0.0000;-0.0879;-0.0604;-61.5839;35.1000 
726.444;0.0010;-0.0015;0.9927;0.0000;0.0000;0.0000;-0.0879;-0.0604;-61.5839;35.1000 
726.444;0.0015;-0.0015;0.9932;0.0000;0.0000;0.0000;-0.0879;-0.0604;-61.5839;35.1000 
726.444;0.0015;-0.0015;0.9932;0.0000;0.0000;0.0000;-0.0879;-0.0604;-61.5839;35.1300 
726.454;0.0015;-0.0015;0.9932;0.0000;0.0000;0.0000;-0.0879;-0.0604;-61.5894;35.1300 
726.454;0.0015;-0.0015;0.9932;0.0000;0.0000;0.0000;-0.0879;-0.0604;-61.5894;35.0900 
726.454;0.0015;-0.0015;0.9932;0.0000;0.0000;0.0000;-0.0879;-0.0604;-61.5894;35.0900 
726.454;0.0015;-0.0015;0.9932;0.0000;0.0000;0.0000;-0.0879;-0.0604;-61.5894;35.1700 
726.454;0.0015;-0.0015;0.9932;0.0000;0.0000;0.0000;-0.0879;-0.0604;-61.5894;35.1700 
726.454;0.0015;-0.0015;0.9932;0.0000;0.0000;0.0000;-0.0879;-0.0604;-61.5894;35.1400 
726.454;0.0020;-0.0020;0.9932;0.0000;0.0000;0.0000;-0.0879;-0.0604;-61.5894;35.1400 
726.454;0.0020;-0.0020;0.9932;0.0000;0.0000;0.0000;-0.0879;-0.0604;-61.5894;35.1400 
726.454;0.0020;-0.0020;0.9932;0.0000;0.0000;0.0000;-0.0879;-0.0604;-61.5894;35.1400 
726.454;0.0020;-0.0020;0.9932;0.0000;0.0000;0.0000;-0.0879;-0.0604;-61.5894;35.1400 
726.454;0.0020;-0.0020;0.9932;0.0000;0.0000;0.0000;-0.0879;-0.0604;-61.5894;35.1400 
726.454;0.0020;-0.0020;0.9932;0.0000;0.0000;0.0000;-0.0879;-0.0604;-61.5894;35.1200 
726.454;0.0020;-0.0020;0.9932;0.0000;0.0000;0.0000;-0.0879;-0.0604;-61.5894;35.1200 
726.454;0.0020;-0.0020;0.9932;0.0000;0.0000;0.0000;-0.0879;-0.0604;-61.5948;35.1100 
726.454;0.0024;-0.0020;0.9937;0.0000;0.0000;0.0000;-0.0879;-0.0604;-61.5948;35.1100 
726.454;0.0024;-0.0020;0.9937;0.0000;0.0000;0.0000;-0.0879;-0.0604;-61.5948;35.1100 
726.474;0.0024;-0.0020;0.9937;0.0000;0.0000;0.0000;-0.0879;-0.0604;-61.5948;35.1400 
726.474;0.0024;-0.0020;0.9937;0.0000;0.0000;0.0000;-0.0879;-0.0604;-61.5948;35.1400 
726.504;0.0024;-0.0020;0.9937;0.0000;0.0000;0.0000;-0.0879;-0.0604;-61.6003;35.1400 
726.504;0.0024;-0.0020;0.9937;0.0000;0.0000;0.0000;-0.0879;-0.0604;-61.6003;35.1400 
726.504;0.0024;-0.0020;0.9937;0.0000;0.0000;0.0000;-0.0879;-0.0604;-61.6003;35.1300 
726.504;0.0024;-0.0020;0.9937;0.0000;0.0000;0.0000;-0.0879;-0.0604;-61.6003;35.1300 
726.504;0.0024;-0.0020;0.9932;0.0000;0.0000;0.0000;-0.0879;-0.0604;-61.6003;35.0900 
726.524;0.0024;-0.0020;0.9932;0.0000;0.0000;0.0000;-0.0879;-0.0604;-61.6003;35.0900 
726.524;0.0024;-0.0020;0.9932;0.0000;0.0000;0.0000;-0.0879;-0.0604;-61.6003;35.1500 
726.524;0.0024;-0.0020;0.9932;0.0000;0.0000;0.0000;-0.0879;-0.0604;-61.6003;35.1500 
726.524;0.0024;-0.0020;0.9932;0.0000;0.0000;0.0000;-0.0879;-0.0659;-61.6003;35.1800 
726.524;0.0024;-0.0020;0.9932;0.0000;0.0000;0.0000;-0.0879;-0.0659;-61.6003;35.1800 
726.524;0.0024;-0.0020;0.9932;0.0000;0.0000;0.0000;-0.0879;-0.0659;-61.6003;35.0800 
726.524;0.0024;-0.0020;0.9932;0.0000;0.0000;0.0000;-0.0879;-0.0659;-61.5948;35.0800 
726.524;0.0029;-0.0029;0.9932;0.0000;0.0000;0.0000;-0.0879;-0.0659;-61.5948;35.1100 
726.534;0.0029;-0.0029;0.9932;0.0000;0.0000;0.0000;-0.0879;-0.0659;-61.5894;35.1100 
726.534;0.0029;-0.0029;0.9932;0.0000;0.0000;0.0000;-0.0879;-0.0659;-61.5894;35.1100 
726.544;0.0029;-0.0029;0.9932;0.0000;0.0000;0.0000;-0.0879;-0.0659;-61.5839;35.1700 
726.544;0.0029;-0.0029;0.9932;0.0000;0.0000;0.0000;-0.0879;-0.0659;-61.5839;35.1700 
726.554;0.0029;-0.0029;0.9932;0.0000;0.0000;0.0000;-0.0879;-0.0659;-61.5784;35.1100 
726.554;0.0029;-0.0029;0.9932;0.0000;0.0000;0.0000;-0.0879;-0.0659;-61.5784;35.1100 
726.654;0.0024;-0.0024;0.9932;0.0000;0.0000;0.0000;-0.0879;-0.0659;-61.5784;35.1500 
726.654;0.0024;-0.0024;0.9932;0.0000;0.0000;0.0000;-0.0879;-0.0659;-61.5729;35.1500 
726.664;0.0024;-0.0024;0.9932;0.0000;0.0000;0.0000;-0.0879;-0.0659;-61.5729;35.1600 
726.664;0.0024;-0.0024;0.9932;0.0000;0.0000;0.0000;-0.0879;-0.0659;-61.5729;35.1600 
726.664;0.0024;-0.0024;0.9932;0.0000;0.0000;0.0000;-0.0879;-0.0659;-61.5729;35.1000 
726.664;0.0024;-0.0024;0.9932;0.0000;0.0000;0.0000;-0.0879;-0.0659;-61.5729;35.1000 
726.664;0.0024;-0.0024;0.9932;0.0000;0.0000;0.0000;-0.0879;-0.0659;-61.5729;35.1100 
726.664;0.0024;-0.0024;0.9932;0.0000;0.0000;0.0000;-0.0879;-0.0659;-61.5729;35.1100 
726.664;0.0020;-0.0020;0.9932;0.0000;0.0000;0.0000;-0.0879;-0.0659;-61.5729;35.1400 
726.664;0.0020;-0.0020;0.9932;0.0000;0.0000;0.0000;-0.0879;-0.0659;-61.5729;35.1400 
726.664;0.0020;-0.0020;0.9932;0.0000;0.0000;0.0000;-0.0879;-0.0659;-61.5674;35.1400 
726.664;0.0020;-0.0020;0.9932;0.0000;0.0000;0.0000;-0.0879;-0.0659;-61.5674;35.1600 
726.664;0.0020;-0.0020;0.9932;0.0000;0.0000;0.0000;-0.0879;-0.0659;-61.5729;35.1600 
726.664;0.0020;-0.0020;0.9932;0.0000;0.0000;0.0000;-0.0879;-0.0659;-61.5729;35.1100 
726.664;0.0020;-0.0020;0.9932;0.0000;0.0000;0.0000;-0.0879;-0.0659;-61.5729;35.1100 
726.664;0.0020;-0.0020;0.9932;0.0000;0.0000;0.0000;-0.0879;-0.0659;-61.5729;35.1500 
726.664;0.0015;-0.0010;0.9932;0.0000;0.0000;0.0000;-0.0879;-0.0659;-61.5729;35.1500 
726.664;0.0015;-0.0010;0.9932;0.0000;0.0000;0.0000;-0.0879;-0.0714;-61.5729;35.1600 
726.664;0.0015;-0.0010;0.9932;0.0000;0.0000;0.0000;-0.0879;-0.0714;-61.5674;35.1600 
726.664;0.0015;-0.0010;0.9932;0.0000;0.0000;0.0000;-0.0879;-0.0714;-61.5674;35.1300 
726.664;0.0015;-0.0010;0.9932;0.0000;0.0000;0.0000;-0.0879;-0.0714;-61.5674;35.1300 
726.684;0.0015;-0.0010;0.9932;0.0000;0.0000;0.0000;-0.0879;-0.0714;-61.5674;35.1100 
726.684;0.0015;-0.0010;0.9932;0.0000;0.0000;0.0000;-0.0879;-0.0714;-61.5674;35.1100 
726.684;0.0015;-0.0010;0.9932;0.0000;0.0000;0.0000;-0.0879;-0.0714;-61.5619;35.1300 
726.684;0.0010;-0.0015;0.9932;0.0000;0.0000;0.0000;-0.0879;-0.0714;-61.5619;35.1300 
726.694;0.0010;-0.0015;0.9932;0.0000;0.0000;0.0000;-0.0879;-0.0714;-61.5619;35.1300 
726.694;0.0010;-0.0015;0.9932;0.0000;0.0000;0.0000;-0.0879;-0.0714;-61.5619;35.1300 
726.714;0.0010;-0.0015;0.9932;0.0000;0.0000;0.0000;-0.0879;-0.0714;-61.5674;35.1300 
726.714;0.0010;-0.0015;0.9932;0.0000;0.0000;0.0000;-0.0879;-0.0659;-61.5674;35.1100 
726.724;0.0010;-0.0015;0.9932;0.0000;0.0000;0.0000;-0.0879;-0.0659;-61.5674;35.1100 
726.724;0.0010;-0.0015;0.9932;0.0000;0.0000;0.0000;-0.0879;-0.0659;-61.5674;35.1800 
726.724;0.0010;-0.0015;0.9932;0.0000;0.0000;0.0000;-0.0879;-0.0659;-61.5674;35.1800 
726.724;0.0010;-0.0010;0.9937;0.0000;0.0000;0.0000;-0.0879;-0.0659;-61.5674;35.1100 
726.744;0.0010;-0.0010;0.9937;0.0000;0.0000;0.0000;-0.0879;-0.0659;-61.5674;35.1100 
726.744;0.0010;-0.0010;0.9937;0.0000;0.0000;0.0000;-0.0879;-0.0659;-61.5729;35.1000 
726.744;0.0010;-0.0010;0.9937;0.0000;0.0000;0.0000;-0.0879;-0.0659;-61.5729;35.1000 
726.744;0.0010;-0.0010;0.9937;0.0000;0.0000;0.0000;-0.0879;-0.0659;-61.5729;35.1200 
726.754;0.0010;-0.0010;0.9937;0.0000;0.0000;0.0000;-0.0879;-0.0659;-61.5729;35.1200 
726.754;0.0010;-0.0010;0.9937;0.0000;0.0000;0.0000;-0.0879;-0.0659;-61.5729;35.0800 
726.764;0.0010;-0.0010;0.9937;0.0000;0.0000;0.0000;-0.0879;-0.0659;-61.5729;35.0800 
726.764;-0.0039;-0.0015;0.9966;0.0000;0.0000;0.0000;-0.0879;-0.0659;-61.5729;35.1300 
726.854;-0.0039;-0.0015;0.9966;0.0000;0.0000;0.0000;-0.0879;-0.0659;-61.5729;35.1300 
726.854;-0.0039;-0.0015;0.9966;0.0000;0.0000;0.0000;-0.0879;-0.0659;-61.5729;35.1500 
726.864;-0.0039;-0.0015;0.9966;0.0000;0.0000;0.0000;-0.0879;-0.0659;-61.5674;35.1500 
726.864;-0.0039;-0.0015;0.9966;0.0000;0.0000;0.0000;-0.0879;-0.0659;-61.5674;35.1500 
726.864;-0.0039;-0.0015;0.9966;0.0000;0.0000;0.0000;-0.0879;-0.0604;-61.5674;35.1000 
726.864;-0.0039;-0.0015;0.9966;0.0000;0.0000;0.0000;-0.0879;-0.0604;-61.5674;35.1000 
726.864;-0.0039;-0.0015;0.9966;0.0000;0.0000;0.0000;-0.0879;-0.0604;-61.5674;35.1500 
726.864;-0.3071;-0.0298;1.0391;0.0000;0.1221;-0.1221;-0.0934;-0.0110;-61.5674;35.1500 
726.864;-0.3071;-0.0298;1.0391;0.0000;0.1221;-0.1221;-0.0989;0.0330;-61.5674;35.1500 
726.864;-0.3071;-0.0298;1.0391;0.0000;0.1221;-0.1221;-0.1044;0.0824;-61.5619;35.1500 
726.864;-0.3071;-0.0298;1.0391;0.0000;0.1221;-0.1221;-0.1044;0.1318;-61.5619;35.1200 
726.864;-0.3071;-0.0298;1.0391;0.0000;0.1221;-0.1221;-0.1099;0.1813;-61.5619;35.1200 
726.864;-0.3071;-0.0298;1.0391;0.0000;0.1221;-0.1221;-0.1154;0.2307;-61.5564;35.1800 
726.864;-0.3071;-0.0298;1.0391;0.0000;0.1221;-0.1221;-0.1208;0.2802;-61.5564;35.1800 
726.864;-0.3071;-0.0298;1.0391;0.0000;0.1221;-0.1221;-0.1263;0.3296;-61.5564;35.1200 
726.864;-0.6958;-0.0469;1.0093;-0.1221;1.1597;-0.5493;-0.1373;0.4340;-61.5454;35.1200 
726.864;-0.6958;-0.0469;1.0093;-0.1221;1.1597;-0.5493;-0.1483;0.5438;-61.5399;35.1100 
726.864;-0.6958;-0.0469;1.0093;-0.1221;1.1597;-0.5493;-0.1593;0.6482;-61.5289;35.1100 
726.864;-0.6958;-0.0469;1.0093;-0.1221;1.1597;-0.5493;-0.1703;0.7526;-61.5179;35.1300 
726.864;-0.6958;-0.0469;1.0093;-0.1221;1.1597;-0.5493;-0.1813;0.8569;-61.5125;35.1300 
726.864;-0.6958;-0.0469;1.0093;-0.1221;1.1597;-0.5493;-0.1868;0.9668;-61.5015;35.1300 
726.884;-0.6958;-0.0469;1.0093;-0.1221;1.1597;-0.5493;-0.1978;1.0712;-61.4960;35.1100 
726.884;-0.6958;-0.0469;1.0093;-0.1221;1.1597;-0.5493;-0.2087;1.1755;-61.4850;35.1100 
726.904;-1.3394;-0.0879;0.9761;-0.4883;3.2349;-1.5869;-0.2362;1.3403;-61.4630;35.2000 
726.904;-1.3394;-0.0879;0.9761;-0.4883;3.2349;-1.5869;-0.2637;1.5051;-61.4410;35.2000 
726.904;-1.3394;-0.0879;0.9761;-0.4883;3.2349;-1.5869;-0.2911;1.6754;-61.4191;35.1800 
726.904;-1.3394;-0.0879;0.9761;-0.4883;3.2349;-1.5869;-0.3186;1.8402;-61.3971;35.1800 
726.914;-1.3394;-0.0879;0.9761;-0.4883;3.2349;-1.5869;-0.3461;2.0050;-61.3806;35.1100 
726.914;-1.3394;-0.0879;0.9761;-0.4883;3.2349;-1.5869;-0.3735;2.1698;-61.3586;35.1100 
726.914;-1.3394;-0.0879;0.9761;-0.4883;3.2349;-1.5869;-0.3955;2.3346;-61.3367;35.1400 
726.914;-1.3394;-0.0879;0.9761;-0.4883;3.2349;-1.5869;-0.4230;2.4994;-61.3147;35.1400 
726.924;-1.9116;-0.1362;0.9419;-1.0376;4.7607;-3.1128;-0.4724;2.6917;-61.2872;35.1300 
726.924;-1.9116;-0.1362;0.9419;-1.0376;4.7607;-3.1128;-0.5164;2.8839;-61.2543;35.1300 
726.954;-1.9116;-0.1362;0.9419;-1.0376;4.7607;-3.1128;-0.5658;3.0762;-61.2213;35.1300 
726.954;-1.9116;-0.1362;0.9419;-1.0376;4.7607;-3.1128;-0.6097;3.2739;-61.1884;35.1300 
726.964;-1.9116;-0.1362;0.9419;-1.0376;4.7607;-3.1128;-0.6592;3.4662;-61.1609;35.1300 
726.964;-1.9116;-0.1362;0.9419;-1.0376;4.7607;-3.1128;-0.7031;3.6530;-61.1279;35.1300 
726.964;-1.9116;-0.1362;0.9419;-1.0376;4.7607;-3.1128;-0.7471;3.8452;-61.1005;35.1300 
726.964;-1.9116;-0.1362;0.9419;-1.0376;4.7607;-3.1128;-0.7910;4.0375;-61.0730;35.1300 
727.053;-2.3188;-0.1611;0.9121;-1.5259;4.6387;-5.1270;-0.8514;4.2352;-61.0400;35.1300 
727.053;-2.3188;-0.1611;0.9121;-1.5259;4.6387;-5.1270;-0.9119;4.4385;-61.0126;35.1500 
727.063;-2.3188;-0.1611;0.9121;-1.5259;4.6387;-5.1270;-0.9668;4.6362;-60.9851;35.1500 
727.063;-2.3188;-0.1611;0.9121;-1.5259;4.6387;-5.1270;-1.0272;4.8340;-60.9576;35.1500 
727.063;-2.3188;-0.1611;0.9121;-1.5259;4.6387;-5.1270;-1.0822;5.0317;-60.9247;35.1500 
727.063;-2.3188;-0.1611;0.9121;-1.5259;4.6387;-5.1270;-1.1426;5.2295;-60.8972;35.1600 
727.063;-2.3188;-0.1611;0.9121;-1.5259;4.6387;-5.1270;-1.2030;5.4218;-60.8643;35.1600 
727.063;-2.3188;-0.1611;0.9121;-1.5259;4.6387;-5.1270;-1.2579;5.6195;-60.8368;35.1600 
727.063;-2.2764;-0.1963;0.8560;-1.4038;2.5024;-7.3853;-1.3239;5.8063;-60.8148;35.1600 
727.063;-2.2764;-0.1963;0.8560;-1.4038;2.5024;-7.3853;-1.3898;5.9875;-60.7874;35.1400 
727.063;-2.2764;-0.1963;0.8560;-1.4038;2.5024;-7.3853;-1.4612;6.1743;-60.7654;35.1400 
727.063;-2.2764;-0.1963;0.8560;-1.4038;2.5024;-7.3853;-1.5271;6.3556;-60.7379;35.0900 
727.063;-2.2764;-0.1963;0.8560;-1.4038;2.5024;-7.3853;-1.5930;6.5369;-60.7159;35.0900 
727.063;-2.2764;-0.1963;0.8560;-1.4038;2.5024;-7.3853;-1.6589;6.7181;-60.6940;35.0900 
727.063;-2.2764;-0.1963;0.8560;-1.4038;2.5024;-7.3853;-1.7249;6.8994;-60.6720;35.1100 
727.063;-2.2764;-0.1963;0.8560;-1.4038;2.5024;-7.3853;-1.7908;7.0862;-60.6500;35.1100 
727.063;-1.9380;-0.1812;0.7744;-0.0610;-1.6479;-9.7046;-1.8457;7.2400;-60.6500;35.1400 
727.074;-1.9380;-0.1812;0.7744;-0.0610;-1.6479;-9.7046;-1.9006;7.3993;-60.6445;35.1400 
727.074;-1.9380;-0.1812;0.7744;-0.0610;-1.6479;-9.7046;-1.9556;7.5586;-60.6390;35.1100 
727.083;-1.9380;-0.1812;0.7744;-0.0610;-1.6479;-9.7046;-2.0105;7.7124;-60.6335;35.1100 
727.083;-1.9380;-0.1812;0.7744;-0.0610;-1.6479;-9.7046;-2.0709;7.8717;-60.6281;35.1100 
727.094;-1.9380;-0.1812;0.7744;-0.0610;-1.6479;-9.7046;-2.1259;8.0255;-60.6226;35.1100 
727.094;-1.9380;-0.1812;0.7744;-0.0610;-1.6479;-9.7046;-2.1808;8.1793;-60.6226;35.1400 
727.103;-1.9380;-0.1812;0.7744;-0.0610;-1.6479;-9.7046;-2.2357;8.3331;-60.6171;35.1400 
727.103;-1.3110;-0.1479;0.5884;2.8687;-6.7139;-12.5732;-2.2797;8.4595;-60.6335;35.1400 
727.103;-1.3110;-0.1479;0.5884;2.8687;-6.7139;-12.5732;-2.3181;8.5803;-60.6500;35.1400 
727.103;-1.3110;-0.1479;0.5884;2.8687;-6.7139;-12.5732;-2.3566;8.7012;-60.6665;35.1400 
727.114;-1.3110;-0.1479;0.5884;2.8687;-6.7139;-12.5732;-2.3950;8.8275;-60.6885;35.1400 
727.114;-1.3110;-0.1479;0.5884;2.8687;-6.7139;-12.5732;-2.4335;8.9484;-60.7104;35.1200 
727.114;-1.3110;-0.1479;0.5884;2.8687;-6.7139;-12.5732;-2.4719;9.0692;-60.7269;35.1200 
727.114;-1.3110;-0.1479;0.5884;2.8687;-6.7139;-12.5732;-2.5104;9.1901;-60.7489;35.1200 
727.134;-1.3110;-0.1479;0.5884;2.8687;-6.7139;-12.5732;-2.5488;9.3109;-60.7709;35.0900 
727.134;-0.6133;-0.0859;0.3628;7.2021;-11.2915;-16.3574;-2.5598;9.3933;-60.8258;35.0900 
727.134;-0.6133;-0.0859;0.3628;7.2021;-11.2915;-16.3574;-2.5653;9.4757;-60.8807;35.1200 
727.134;-0.6133;-0.0859;0.3628;7.2021;-11.2915;-16.3574;-2.5763;9.5581;-60.9357;35.1200 
727.154;-0.6133;-0.0859;0.3628;7.2021;-11.2915;-16.3574;-2.5873;9.6405;-60.9961;35.1300 
727.154;-0.6133;-0.0859;0.3628;7.2021;-11.2915;-16.3574;-2.5983;9.7229;-61.0510;35.1300 
727.154;-0.6133;-0.0859;0.3628;7.2021;-11.2915;-16.3574;-2.6038;9.7998;-61.1060;35.1900 
727.154;-0.6133;-0.0859;0.3628;7.2021;-11.2915;-16.3574;-2.6147;9.8822;-61.1664;35.1900 
727.163;-0.6133;-0.0859;0.3628;7.2021;-11.2915;-16.3574;-2.6202;9.9646;-61.2268;35.1300 
727.253;-0.0503;-0.0220;0.1772;12.2070;-15.2588;-21.0571;-2.5928;9.8987;-61.3531;35.1300 
727.253;-0.0503;-0.0220;0.1772;12.2070;-15.2588;-21.0571;-2.5598;9.8383;-61.4795;35.1200 
727.273;-0.0503;-0.0220;0.1772;12.2070;-15.2588;-21.0571;-2.5269;9.7778;-61.6058;35.1200 
727.273;-0.0503;-0.0220;0.1772;12.2070;-15.2588;-21.0571;-2.4994;9.7119;-61.7322;35.1100 
727.273;-0.0503;-0.0220;0.1772;12.2070;-15.2588;-21.0571;-2.4664;9.6515;-61.8585;35.1100 
727.273;-0.0503;-0.0220;0.1772;12.2070;-15.2588;-21.0571;-2.4335;9.5911;-61.9849;35.0500 
727.273;-0.0503;-0.0220;0.1772;12.2070;-15.2588;-21.0571;-2.4060;9.5306;-62.1167;35.0500 
727.273;-0.0503;-0.0220;0.1772;12.2070;-15.2588;-21.0571;-2.3730;9.4702;-62.2430;35.0500 
727.273;0.3008;0.0278;0.0640;17.0898;-18.0664;-26.7944;-2.2467;9.1461;-62.3254;35.1400 
727.273;0.3008;0.0278;0.0640;17.0898;-18.0664;-26.7944;-2.1204;8.8165;-62.4078;35.1400 
727.273;0.3008;0.0278;0.0640;17.0898;-18.0664;-26.7944;-1.9940;8.4924;-62.4902;35.1000 
727.273;0.3008;0.0278;0.0640;17.0898;-18.0664;-26.7944;-1.8732;8.1683;-62.5781;35.1000 
727.273;0.3008;0.0278;0.0640;17.0898;-18.0664;-26.7944;-1.7468;7.8497;-62.6660;35.0800 
727.273;0.3008;0.0278;0.0640;17.0898;-18.0664;-26.7944;-1.6260;7.5256;-62.7539;35.0800 
727.273;0.3008;0.0278;0.0640;17.0898;-18.0664;-26.7944;-1.5051;7.2015;-62.8473;35.1800 
727.273;0.3008;0.0278;0.0640;17.0898;-18.0664;-26.7944;-1.3843;6.8829;-62.9462;35.1800 
727.273;0.4575;0.0605;0.0239;21.1792;-19.1650;-33.2031;-1.1865;6.5588;-63.0231;35.1600 
727.273;0.4575;0.0605;0.0239;21.1792;-19.1650;-33.2031;-0.9888;6.2347;-63.1000;35.1600 
727.273;0.4575;0.0605;0.0239;21.1792;-19.1650;-33.2031;-0.7910;5.9106;-63.1824;35.1200 
727.273;0.4575;0.0605;0.0239;21.1792;-19.1650;-33.2031;-0.5933;5.5865;-63.2648;35.1200 
727.283;0.4575;0.0605;0.0239;21.1792;-19.1650;-33.2031;-0.3955;5.2625;-63.3472;35.1700 
727.283;0.4575;0.0605;0.0239;21.1792;-19.1650;-33.2031;-0.2032;4.9438;-63.4296;35.1700 
727.283;0.4575;0.0605;0.0239;21.1792;-19.1650;-33.2031;-0.0110;4.6198;-63.5229;35.1200 
727.303;0.4575;0.0605;0.0239;21.1792;-19.1650;-33.2031;0.1813;4.3011;-63.6108;35.1200 
727.303;0.4727;0.0776;0.0405;24.5361;-18.3716;-40.3442;0.3845;3.9880;-63.7482;35.1200 
727.303;0.4727;0.0776;0.0405;24.5361;-18.3716;-40.3442;0.5878;3.6749;-63.8855;35.1300 
727.323;0.4727;0.0776;0.0405;24.5361;-18.3716;-40.3442;0.7910;3.3618;-64.0228;35.1300 
727.323;0.4727;0.0776;0.0405;24.5361;-18.3716;-40.3442;0.9943;3.0542;-64.1656;35.1200 
727.323;0.4727;0.0776;0.0405;24.5361;-18.3716;-40.3442;1.1920;2.7411;-64.3085;35.1200 
727.333;0.4727;0.0776;0.0405;24.5361;-18.3716;-40.3442;1.3953;2.4335;-64.4568;35.2000 
727.333;0.4727;0.0776;0.0405;24.5361;-18.3716;-40.3442;1.5930;2.1259;-64.6051;35.2000 
727.343;0.4727;0.0776;0.0405;24.5361;-18.3716;-40.3442;1.7908;1.8182;-64.7589;35.1300 
727.343;0.2358;0.2988;0.3052;27.6489;-15.9912;-48.4619;2.0270;1.6425;-65.0226;35.1300 
727.343;0.2358;0.2988;0.3052;27.6489;-15.9912;-48.4619;2.2687;1.4722;-65.2808;35.1000 
727.343;0.2358;0.2988;0.3052;27.6489;-15.9912;-48.4619;2.5049;1.3019;-65.5444;35.1000 
727.364;0.2358;0.2988;0.3052;27.6489;-15.9912;-48.4619;2.7411;1.1316;-65.8026;35.1400 
727.364;0.2358;0.2988;0.3052;27.6489;-15.9912;-48.4619;2.9828;0.9613;-66.0663;35.1400 
727.453;0.2358;0.2988;0.3052;27.6489;-15.9912;-48.4619;3.2190;0.7965;-66.3245;35.1500 
727.453;0.2358;0.2988;0.3052;27.6489;-15.9912;-48.4619;3.4552;0.6317;-66.5881;35.1500 
727.473;0.2358;0.2988;0.3052;27.6489;-15.9912;-48.4619;3.6969;0.4669;-66.8463;35.1500 
727.473;0.3223;0.6328;0.6548;24.7192;-16.3574;-54.1382;3.9276;0.3351;-67.1484;35.0700 
727.473;0.3223;0.6328;0.6548;24.7192;-16.3574;-54.1382;4.1528;0.1978;-67.4506;35.0700 
727.473;0.3223;0.6328;0.6548;24.7192;-16.3574;-54.1382;4.3835;0.0659;-67.7472;35.1100 
727.473;0.3223;0.6328;0.6548;24.7192;-16.3574;-54.1382;4.6143;-0.0549;-68.0493;35.1100 
727.473;0.3223;0.6328;0.6548;24.7192;-16.3574;-54.1382;4.8450;-0.1868;-68.3459;35.0800 
727.473;0.3223;0.6328;0.6548;24.7192;-16.3574;-54.1382;5.0757;-0.3131;-68.6481;35.0800 
727.473;0.3223;0.6328;0.6548;24.7192;-16.3574;-54.1382;5.3009;-0.4395;-68.9502;35.1800 
727.473;0.3223;0.6328;0.6548;24.7192;-16.3574;-54.1382;5.5316;-0.5603;-69.2468;35.1800 
727.473;0.1411;0.8799;0.8457;2.6245;-24.7803;-51.9409;5.6635;-0.6921;-69.5544;35.1600 
727.473;0.1411;0.8799;0.8457;2.6245;-24.7803;-51.9409;5.7953;-0.8185;-69.8621;35.1600 
727.473;0.1411;0.8799;0.8457;2.6245;-24.7803;-51.9409;5.9271;-0.9503;-70.1697;35.1200 
727.473;0.1411;0.8799;0.8457;2.6245;-24.7803;-51.9409;6.0645;-1.0767;-70.4773;35.1200 
727.473;0.1411;0.8799;0.8457;2.6245;-24.7803;-51.9409;6.1963;-1.2030;-70.7849;35.1000 
727.473;0.1411;0.8799;0.8457;2.6245;-24.7803;-51.9409;6.3281;-1.3293;-71.0980;35.1000 
727.473;0.1411;0.8799;0.8457;2.6245;-24.7803;-51.9409;6.4600;-1.4557;-71.4056;35.1400 
727.473;0.1411;0.8799;0.8457;2.6245;-24.7803;-51.9409;6.5973;-1.5765;-71.7188;35.1400 
727.473;0.2686;1.0708;0.9263;-45.8374;-41.9922;-40.2832;6.4929;-1.8073;-71.9769;35.1400 
727.473;0.2686;1.0708;0.9263;-45.8374;-41.9922;-40.2832;6.3885;-2.0325;-72.2406;35.0700 
727.473;0.2686;1.0708;0.9263;-45.8374;-41.9922;-40.2832;6.2897;-2.2632;-72.5043;35.0700 
727.473;0.2686;1.0708;0.9263;-45.8374;-41.9922;-40.2832;6.1908;-2.4939;-72.7625;35.1400 
727.473;0.2686;1.0708;0.9263;-45.8374;-41.9922;-40.2832;6.0919;-2.7191;-73.0261;35.1400 
727.483;0.2686;1.0708;0.9263;-45.8374;-41.9922;-40.2832;5.9930;-2.9498;-73.2898;35.1000 
727.493;0.2686;1.0708;0.9263;-45.8374;-41.9922;-40.2832;5.8997;-3.1805;-73.5535;35.1000 
727.493;0.2686;1.0708;0.9263;-45.8374;-41.9922;-40.2832;5.8063;-3.4058;-73.8171;35.1500 
727.503;0.2905;0.9038;0.5967;-118.2861;-66.4673;-20.9961;5.3613;-3.7848;-73.9984;35.1500 
727.503;0.2905;0.9038;0.5967;-118.2861;-66.4673;-20.9961;4.9164;-4.1638;-74.1797;35.1200 
727.573;0.2905;0.9038;0.5967;-118.2861;-66.4673;-20.9961;4.4769;-4.5428;-74.3555;35.1200 
727.573;0.2905;0.9038;0.5967;-118.2861;-66.4673;-20.9961;4.0375;-4.9219;-74.5313;35.2100 
727.583;0.2905;0.9038;0.5967;-118.2861;-66.4673;-20.9961;3.6035;-5.3064;-74.7070;35.2100 
727.583;0.2905;0.9038;0.5967;-118.2861;-66.4673;-20.9961;3.1696;-5.6854;-74.8828;35.1200 
727.603;0.2905;0.9038;0.5967;-118.2861;-66.4673;-20.9961;2.7356;-6.0699;-75.0586;35.1200 
727.603;0.2905;0.9038;0.5967;-118.2861;-66.4673;-20.9961;2.3016;-6.4545;-75.2289;35.1700 
727.623;0.2632;0.5820;0.1382;-200.9888;-91.8579;-0.9766;1.4832;-7.0093;-75.2948;35.1700 
727.623;0.2632;0.5820;0.1382;-200.9888;-91.8579;-0.9766;0.6702;-7.5641;-75.3552;35.1700 
727.713;0.2632;0.5820;0.1382;-200.9888;-91.8579;-0.9766;-0.1428;-8.1189;-75.4102;35.1100 
727.713;0.2632;0.5820;0.1382;-200.9888;-91.8579;-0.9766;-0.9613;-8.6737;-75.4651;35.1100 
727.733;0.2632;0.5820;0.1382;-200.9888;-91.8579;-0.9766;-1.7743;-9.2285;-75.5090;35.0600 
727.733;0.2632;0.5820;0.1382;-200.9888;-91.8579;-0.9766;-2.5873;-9.7888;-75.5530;35.0600 
727.733;0.2632;0.5820;0.1382;-200.9888;-91.8579;-0.9766;-3.4058;-10.3436;-75.5914;35.1400 
727.733;0.2632;0.5820;0.1382;-200.9888;-91.8579;-0.9766;-4.2188;-10.8984;-75.6244;35.1400 
727.733;0.3330;0.2339;-0.2124;-273.2544;-111.3281;11.6577;-5.3833;-11.6290;-75.4926;35.2000 
727.733;0.3330;0.2339;-0.2124;-273.2544;-111.3281;11.6577;-6.5533;-12.3596;-75.3497;35.2000 
727.743;0.3330;0.2339;-0.2124;-273.2544;-111.3281;11.6577;-7.7289;-13.0902;-75.1959;35.0800 
727.743;0.3330;0.2339;-0.2124;-273.2544;-111.3281;11.6577;-8.9044;-13.8153;-75.0311;35.0800 
727.783;0.3330;0.2339;-0.2124;-273.2544;-111.3281;11.6577;-10.0909;-14.5459;-74.8608;35.1500 
727.783;0.3330;0.2339;-0.2124;-273.2544;-111.3281;11.6577;-11.2830;-15.2710;-74.6741;35.1500 
727.803;0.3330;0.2339;-0.2124;-273.2544;-111.3281;11.6577;-12.4805;-15.9906;-74.4763;35.2000 
727.803;0.3330;0.2339;-0.2124;-273.2544;-111.3281;11.6577;-13.6835;-16.7102;-74.2731;35.2000 
727.803;0.3320;-0.0234;-0.5093;-323.5474;-123.5352;14.5264;-15.6940;-17.2870;-74.0863;35.1100 
727.813;0.3320;-0.0234;-0.5093;-323.5474;-123.5352;14.5264;-17.7100;-17.8583;-73.8776;35.1100 
727.813;0.3320;-0.0234;-0.5093;-323.5474;-123.5352;14.5264;-19.7369;-18.4296;-73.6469;35.1100 
727.823;0.3320;-0.0234;-0.5093;-323.5474;-123.5352;14.5264;-21.7694;-18.9954;-73.3887;35.1000 
727.823;0.3320;-0.0234;-0.5093;-323.5474;-123.5352;14.5264;-23.8129;-19.5557;-73.1030;35.1000 
727.933;0.3320;-0.0234;-0.5093;-323.5474;-123.5352;14.5264;-25.8673;-20.1050;-72.7954;35.1700 
727.933;0.3320;-0.0234;-0.5093;-323.5474;-123.5352;14.5264;-27.9272;-20.6488;-72.4658;35.1700 
727.943;0.3320;-0.0234;-0.5093;-323.5474;-123.5352;14.5264;-29.9982;-21.1871;-72.1088;35.1600 
727.943;0.6597;-0.4521;-0.6621;-348.6328;-127.9297;11.7798;-32.1021;-21.8518;-71.6528;35.1600 
727.943;0.6597;-0.4521;-0.6621;-348.6328;-127.9297;11.7798;-34.2224;-22.5055;-71.1694;35.1200 
727.943;0.6597;-0.4521;-0.6621;-348.6328;-127.9297;11.7798;-36.3483;-23.1427;-70.6641;35.1200 
727.943;0.6597;-0.4521;-0.6621;-348.6328;-127.9297;11.7798;-38.4851;-23.7579;-70.1312;35.0900 
727.943;0.6597;-0.4521;-0.6621;-348.6328;-127.9297;11.7798;-40.6384;-24.3512;-69.5709;35.0900 
727.943;0.6597;-0.4521;-0.6621;-348.6328;-127.9297;11.7798;-42.7972;-24.9280;-68.9886;35.1500 
727.943;0.6597;-0.4521;-0.6621;-348.6328;-127.9297;11.7798;-44.9670;-25.4828;-68.3844;35.1500 
727.943;0.6597;-0.4521;-0.6621;-348.6328;-127.9297;11.7798;-47.1478;-26.0156;-67.7527;35.1700 
727.943;0.7080;-0.5781;-0.6831;-341.6138;-119.8730;13.6719;-49.2902;-26.4880;-67.1265;35.1700 
727.943;0.7080;-0.5781;-0.6831;-341.6138;-119.8730;13.6719;-51.4380;-26.9330;-66.4728;35.1000 
727.943;0.7080;-0.5781;-0.6831;-341.6138;-119.8730;13.6719;-53.5968;-27.3560;-65.8081;35.1000 
727.943;0.7080;-0.5781;-0.6831;-341.6138;-119.8730;13.6719;-55.7611;-27.7570;-65.1215;35.1000 
727.943;0.7080;-0.5781;-0.6831;-341.6138;-119.8730;13.6719;-57.9364;-28.1360;-64.4238;35.1800 
727.943;0.7080;-0.5781;-0.6831;-341.6138;-119.8730;13.6719;-60.1117;-28.4875;-63.7097;35.1800 
727.943;0.7080;-0.5781;-0.6831;-341.6138;-119.8730;13.6719;-62.2980;-28.8171;-62.9791;35.1100 
727.953;0.7080;-0.5781;-0.6831;-341.6138;-119.8730;13.6719;-64.4897;-29.1248;-62.2321;35.1100 
727.953;0.8472;-0.7803;-0.6455;-298.7671;-95.8862;29.3579;-66.3959;-29.2786;-61.5619;35.1100 
727.963;0.8472;-0.7803;-0.6455;-298.7671;-95.8862;29.3579;-68.3075;-29.4159;-60.8862;35.1100 
727.963;0.8472;-0.7803;-0.6455;-298.7671;-95.8862;29.3579;-70.2191;-29.5313;-60.2106;35.0800 
727.973;0.8472;-0.7803;-0.6455;-298.7671;-95.8862;29.3579;-72.1252;-29.6301;-59.5294;35.0800 
727.973;0.8472;-0.7803;-0.6455;-298.7671;-95.8862;29.3579;-74.0259;-29.7070;-58.8483;35.1400 
728.073;0.8472;-0.7803;-0.6455;-298.7671;-95.8862;29.3579;-75.9265;-29.7675;-58.1671;35.1400 
728.073;0.8472;-0.7803;-0.6455;-298.7671;-95.8862;29.3579;-77.8271;-29.8114;-57.4805;35.1600 
728.093;0.8472;-0.7803;-0.6455;-298.7671;-95.8862;29.3579;-79.7168;-29.8334;-56.7993;35.1600 
728.093;0.7363;-0.7100;-0.4771;-225.0977;-57.4341;60.2417;-81.1285;-29.6576;-56.3049;35.1300 
728.093;0.7363;-0.7100;-0.4771;-225.0977;-57.4341;60.2417;-82.5293;-29.4653;-55.8215;35.1300 
728.093;0.7363;-0.7100;-0.4771;-225.0977;-57.4341;60.2417;-83.9191;-29.2731;-55.3436;35.1300 
728.093;0.7363;-0.7100;-0.4771;-225.0977;-57.4341;60.2417;-85.3033;-29.0643;-54.8767;35.1100 
728.093;0.7363;-0.7100;-0.4771;-225.0977;-57.4341;60.2417;-86.6766;-28.8556;-54.4098;35.1100 
728.093;0.7363;-0.7100;-0.4771;-225.0977;-57.4341;60.2417;-88.0444;-28.6304;-53.9594;35.0800 
728.093;0.7363;-0.7100;-0.4771;-225.0977;-57.4341;60.2417;-89.4012;-28.4052;-53.5144;35.0800 
728.093;0.7363;-0.7100;-0.4771;-225.0977;-57.4341;60.2417;-90.7471;-28.1689;-53.0750;35.1700 
728.093;0.6650;-0.6055;-0.2891;-135.1929;-11.1084;100.0366;-91.4832;-27.7350;-52.9102;35.1700 
728.093;0.6650;-0.6055;-0.2891;-135.1929;-11.1084;100.0366;-92.2137;-27.3065;-52.7509;35.1200 
728.093;0.6650;-0.6055;-0.2891;-135.1929;-11.1084;100.0366;-92.9388;-26.8726;-52.5970;35.1200 
728.093;0.6650;-0.6055;-0.2891;-135.1929;-11.1084;100.0366;-93.6584;-26.4386;-52.4542;35.1400 
728.093;0.6650;-0.6055;-0.2891;-135.1929;-11.1084;100.0366;-94.3726;-26.0101;-52.3169;35.1400 
728.093;0.6650;-0.6055;-0.2891;-135.1929;-11.1084;100.0366;-95.0812;-25.5762;-52.1906;35.1100 
728.093;0.6650;-0.6055;-0.2891;-135.1929;-11.1084;100.0366;-95.7843;-25.1477;-52.0697;35.1100 
728.093;0.6650;-0.6055;-0.2891;-135.1929;-11.1084;100.0366;-96.4819;-24.7137;-51.9543;35.1500 
728.103;0.4780;-0.6831;-0.2749;-56.5186;30.2124;124.8169;-96.6962;-24.1479;-52.1082;35.1500 
728.103;0.4780;-0.6831;-0.2749;-56.5186;30.2124;124.8169;-96.9159;-23.5876;-52.2675;35.1300 
728.103;0.4780;-0.6831;-0.2749;-56.5186;30.2124;124.8169;-97.1301;-23.0273;-52.4268;35.1300 
728.103;0.4780;-0.6831;-0.2749;-56.5186;30.2124;124.8169;-97.3499;-22.4670;-52.5861;35.1300 
728.113;0.4780;-0.6831;-0.2749;-56.5186;30.2124;124.8169;-97.5696;-21.9067;-52.7454;35.1200 
728.113;0.4780;-0.6831;-0.2749;-56.5186;30.2124;124.8169;-97.7838;-21.3574;-52.9102;35.1200 
728.113;0.4780;-0.6831;-0.2749;-56.5186;30.2124;124.8169;-98.0035;-20.8026;-53.0750;35.1400 
728.113;0.4780;-0.6831;-0.2749;-56.5186;30.2124;124.8169;-98.2233;-20.2533;-53.2397;35.1400 
728.143;0.4194;-0.6621;-0.2271;-5.4321;54.1992;112.7319;-98.1464;-19.7754;-53.5309;35.1500 
728.143;0.4194;-0.6621;-0.2271;-5.4321;54.1992;112.7319;-98.0695;-19.2975;-53.8165;35.1500 
728.143;0.4194;-0.6621;-0.2271;-5.4321;54.1992;112.7319;-97.9980;-18.8196;-54.0967;35.1700 
728.143;0.4194;-0.6621;-0.2271;-5.4321;54.1992;112.7319;-97.9266;-18.3417;-54.3768;35.1700 
728.183;0.4194;-0.6621;-0.2271;-5.4321;54.1992;112.7319;-97.8607;-17.8638;-54.6570;35.1200 
728.183;0.4194;-0.6621;-0.2271;-5.4321;54.1992;112.7319;-97.8003;-17.3914;-54.9371;35.1200 
728.183;0.4194;-0.6621;-0.2271;-5.4321;54.1992;112.7319;-97.7399;-16.9189;-55.2118;35.1400 
728.263;0.4194;-0.6621;-0.2271;-5.4321;54.1992;112.7319;-97.6794;-16.4465;-55.4810;35.1400 
728.263;0.3115;-0.7095;-0.3022;23.3154;55.9082;65.6738;-97.5092;-16.1829;-55.7391;35.1000 
728.263;0.3115;-0.7095;-0.3022;23.3154;55.9082;65.6738;-97.3444;-15.9247;-55.9918;35.1000 
728.283;0.3115;-0.7095;-0.3022;23.3154;55.9082;65.6738;-97.1796;-15.6610;-56.2445;35.1400 
728.283;0.3115;-0.7095;-0.3022;23.3154;55.9082;65.6738;-97.0148;-15.4028;-56.4917;35.1400 
728.283;0.3115;-0.7095;-0.3022;23.3154;55.9082;65.6738;-96.8500;-15.1392;-56.7389;35.1400 
728.283;0.3115;-0.7095;-0.3022;23.3154;55.9082;65.6738;-96.6907;-14.8810;-56.9861;35.1700 
728.283;0.3115;-0.7095;-0.3022;23.3154;55.9082;65.6738;-96.5314;-14.6173;-57.2278;35.1700 
728.283;0.3115;-0.7095;-0.3022;23.3154;55.9082;65.6738;-96.3776;-14.3591;-57.4695;35.0900 
728.283;0.1899;-0.5820;-0.2910;37.6587;36.8652;-0.9155;-96.1963;-14.4031;-57.5793;35.0900 
728.283;0.1899;-0.5820;-0.2910;37.6587;36.8652;-0.9155;-96.0205;-14.4470;-57.6892;35.1200 
728.283;0.1899;-0.5820;-0.2910;37.6587;36.8652;-0.9155;-95.8447;-14.4910;-57.7991;35.1200 
728.283;0.1899;-0.5820;-0.2910;37.6587;36.8652;-0.9155;-95.6689;-14.5294;-57.9034;35.1000 
728.283;0.1899;-0.5820;-0.2910;37.6587;36.8652;-0.9155;-95.4932;-14.5734;-58.0133;35.1000 
728.283;0.1899;-0.5820;-0.2910;37.6587;36.8652;-0.9155;-95.3174;-14.6173;-58.1177;35.1200 
728.283;0.1899;-0.5820;-0.2910;37.6587;36.8652;-0.9155;-95.1416;-14.6558;-58.2220;35.1200 
728.283;0.1899;-0.5820;-0.2910;37.6587;36.8652;-0.9155;-94.9658;-14.6997;-58.3264;35.1000 
728.283;0.2754;-0.5313;-0.2378;44.6167;3.6011;-58.1665;-94.7900;-15.0348;-58.2275;35.1000 
728.283;0.2754;-0.5313;-0.2378;44.6167;3.6011;-58.1665;-94.6088;-15.3699;-58.1232;35.1300 
728.283;0.2754;-0.5313;-0.2378;44.6167;3.6011;-58.1665;-94.4330;-15.7050;-58.0243;35.1300 
728.283;0.2754;-0.5313;-0.2378;44.6167;3.6011;-58.1665;-94.2572;-16.0400;-57.9254;35.2000 
728.283;0.2754;-0.5313;-0.2378;44.6167;3.6011;-58.1665;-94.0869;-16.3751;-57.8265;35.2000 
728.283;0.2754;-0.5313;-0.2378;44.6167;3.6011;-58.1665;-93.9111;-16.7102;-57.7277;35.2000 
728.283;0.2754;-0.5313;-0.2378;44.6167;3.6011;-58.1665;-93.7354;-17.0398;-57.6288;35.0700 
728.283;0.2754;-0.5313;-0.2378;44.6167;3.6011;-58.1665;-93.5596;-17.3694;-57.5299;35.0700 
728.283;0.2773;-0.3730;-0.1724;48.2178;-32.7759;-80.9326;-93.4167;-17.8308;-57.2223;35.1300 
728.283;0.2773;-0.3730;-0.1724;48.2178;-32.7759;-80.9326;-93.2794;-18.2867;-56.9202;35.1300 
728.283;0.2773;-0.3730;-0.1724;48.2178;-32.7759;-80.9326;-93.1366;-18.7482;-56.6125;35.1600 
728.283;0.2773;-0.3730;-0.1724;48.2178;-32.7759;-80.9326;-92.9993;-19.2041;-56.3104;35.1600 
728.283;0.2773;-0.3730;-0.1724;48.2178;-32.7759;-80.9326;-92.8674;-19.6600;-56.0028;35.1600 
728.283;0.2773;-0.3730;-0.1724;48.2178;-32.7759;-80.9326;-92.7356;-20.1160;-55.7007;35.1600 
728.283;0.2773;-0.3730;-0.1724;48.2178;-32.7759;-80.9326;-92.6038;-20.5719;-55.3931;35.1300 
728.283;0.2773;-0.3730;-0.1724;48.2178;-32.7759;-80.9326;-92.4719;-21.0278;-55.0909;35.1300 
728.303;0.4873;-0.6792;-0.1895;44.6777;-62.4390;-65.9180;-92.3950;-21.3904;-54.6295;35.1400 
728.303;0.4873;-0.6792;-0.1895;44.6777;-62.4390;-65.9180;-92.3236;-21.7584;-54.1736;35.1400 
728.303;0.4873;-0.6792;-0.1895;44.6777;-62.4390;-65.9180;-92.2522;-22.1210;-53.7122;35.1200 
728.303;0.4873;-0.6792;-0.1895;44.6777;-62.4390;-65.9180;-92.1863;-22.4835;-53.2507;35.1200 
728.303;0.4873;-0.6792;-0.1895;44.6777;-62.4390;-65.9180;-92.1204;-22.8461;-52.7893;35.1200 
728.303;0.4873;-0.6792;-0.1895;44.6777;-62.4390;-65.9180;-92.0544;-23.2086;-52.3279;35.1100 
728.303;0.4873;-0.6792;-0.1895;44.6777;-62.4390;-65.9180;-91.9940;-23.5712;-51.8665;35.1100 
728.303;0.4873;-0.6792;-0.1895;44.6777;-62.4390;-65.9180;-91.9391;-23.9337;-51.4050;35.1100 
728.303;0.5024;-0.6689;-0.1504;33.6914;-79.8950;-26.3062;-91.9666;-24.0930;-50.8557;35.1100 
728.303;0.5024;-0.6689;-0.1504;33.6914;-79.8950;-26.3062;-91.9940;-24.2578;-50.3064;35.1800 
728.303;0.5024;-0.6689;-0.1504;33.6914;-79.8950;-26.3062;-92.0215;-24.4171;-49.7571;35.1800 
728.303;0.5024;-0.6689;-0.1504;33.6914;-79.8950;-26.3062;-92.0544;-24.5764;-49.2078;35.1400 
728.323;0.5024;-0.6689;-0.1504;33.6914;-79.8950;-26.3062;-92.0874;-24.7357;-48.6584;35.1400 
728.323;0.5024;-0.6689;-0.1504;33.6914;-79.8950;-26.3062;-92.1204;-24.8895;-48.1091;35.1100 
728.323;0.5024;-0.6689;-0.1504;33.6914;-79.8950;-26.3062;-92.1588;-25.0488;-47.5653;35.1100 
728.323;0.5024;-0.6689;-0.1504;33.6914;-79.8950;-26.3062;-92.1918;-25.2026;-47.0160;35.1400 
728.323;0.4966;-0.9419;-0.1763;21.2402;-82.2754;17.8223;-92.3016;-25.1147;-46.4777;35.1400 
728.323;0.4966;-0.9419;-0.1763;21.2402;-82.2754;17.8223;-92.4060;-25.0214;-45.9393;35.0500 
728.323;0.4966;-0.9419;-0.1763;21.2402;-82.2754;17.8223;-92.5104;-24.9225;-45.4010;35.0500 
728.323;0.4966;-0.9419;-0.1763;21.2402;-82.2754;17.8223;-92.6147;-24.8291;-44.8682;35.1400 
728.333;0.4966;-0.9419;-0.1763;21.2402;-82.2754;17.8223;-92.7191;-24.7357;-44.3353;35.1400 
728.333;0.4966;-0.9419;-0.1763;21.2402;-82.2754;17.8223;-92.8180;-24.6423;-43.8025;35.1400 
728.333;0.4966;-0.9419;-0.1763;21.2402;-82.2754;17.8223;-92.9169;-24.5435;-43.2751;35.1200 
728.333;0.4966;-0.9419;-0.1763;21.2402;-82.2754;17.8223;-93.0157;-24.4446;-42.7478;35.1200 
728.333;0.4028;-0.9927;-0.1313;9.8267;-71.8384;50.1099;-93.1366;-24.1754;-42.2974;35.0700 
728.333;0.4028;-0.9927;-0.1313;9.8267;-71.8384;50.1099;-93.2574;-23.9008;-41.8469;35.0700 
728.333;0.4028;-0.9927;-0.1313;9.8267;-71.8384;50.1099;-93.3728;-23.6261;-41.4020;35.1300 
728.343;0.4028;-0.9927;-0.1313;9.8267;-71.8384;50.1099;-93.4827;-23.3514;-40.9625;35.1300 
728.343;0.4028;-0.9927;-0.1313;9.8267;-71.8384;50.1099;-93.5925;-23.0768;-40.5176;35.0800 
728.343;0.4028;-0.9927;-0.1313;9.8267;-71.8384;50.1099;-93.7024;-22.8076;-40.0836;35.0800 
728.343;0.4028;-0.9927;-0.1313;9.8267;-71.8384;50.1099;-93.8068;-22.5330;-39.6442;35.0900 
728.343;0.4028;-0.9927;-0.1313;9.8267;-71.8384;50.1099;-93.9111;-22.2583;-39.2157;35.0900 
728.343;0.2778;-1.0693;-0.0859;0.1831;-53.4058;61.5845;-94.0155;-21.9122;-38.8916;35.1800 
728.343;0.2778;-1.0693;-0.0859;0.1831;-53.4058;61.5845;-94.1144;-21.5662;-38.5730;35.1800 
728.363;0.2778;-1.0693;-0.0859;0.1831;-53.4058;61.5845;-94.2133;-21.2201;-38.2599;35.1300 
728.363;0.2778;-1.0693;-0.0859;0.1831;-53.4058;61.5845;-94.3121;-20.8740;-37.9468;35.1300 
728.363;0.2778;-1.0693;-0.0859;0.1831;-53.4058;61.5845;-94.4055;-20.5280;-37.6337;35.1300 
728.373;0.2778;-1.0693;-0.0859;0.1831;-53.4058;61.5845;-94.4989;-20.1819;-37.3260;35.1300 
728.373;0.2778;-1.0693;-0.0859;0.1831;-53.4058;61.5845;-94.5868;-19.8413;-37.0184;35.1300 
728.373;0.2778;-1.0693;-0.0859;0.1831;-53.4058;61.5845;-94.6747;-19.4952;-36.7108;35.1600 
728.463;0.1865;-1.0981;-0.0396;-5.4932;-31.7383;54.0161;-94.7461;-19.1821;-36.5240;35.1600 
728.463;0.1865;-1.0981;-0.0396;-5.4932;-31.7383;54.0161;-94.8175;-18.8745;-36.3373;35.1600 
728.463;0.1865;-1.0981;-0.0396;-5.4932;-31.7383;54.0161;-94.8834;-18.5614;-36.1505;35.1600 
728.463;0.1865;-1.0981;-0.0396;-5.4932;-31.7383;54.0161;-94.9493;-18.2538;-35.9692;35.0900 
728.463;0.1865;-1.0981;-0.0396;-5.4932;-31.7383;54.0161;-95.0153;-17.9462;-35.7825;35.0900 
728.463;0.1865;-1.0981;-0.0396;-5.4932;-31.7383;54.0161;-95.0812;-17.6385;-35.6012;35.1300 
728.463;0.1865;-1.0981;-0.0396;-5.4932;-31.7383;54.0161;-95.1416;-17.3309;-35.4199;35.1300 
728.463;0.1865;-1.0981;-0.0396;-5.4932;-31.7383;54.0161;-95.2075;-17.0233;-35.2441;35.1800 
728.463;0.1284;-1.0933;-0.0083;-7.3853;-12.3901;36.7432;-95.2460;-16.8036;-35.1563;35.1800 
728.483;0.1284;-1.0933;-0.0083;-7.3853;-12.3901;36.7432;-95.2844;-16.5839;-35.0739;35.1100 
728.483;0.1284;-1.0933;-0.0083;-7.3853;-12.3901;36.7432;-95.3229;-16.3641;-34.9915;35.1100 
728.483;0.1284;-1.0933;-0.0083;-7.3853;-12.3901;36.7432;-95.3613;-16.1444;-34.9091;35.2100 
728.483;0.1284;-1.0933;-0.0083;-7.3853;-12.3901;36.7432;-95.3998;-15.9302;-34.8322;35.2100 
728.483;0.1284;-1.0933;-0.0083;-7.3853;-12.3901;36.7432;-95.4327;-15.7104;-34.7498;35.1400 
728.483;0.1284;-1.0933;-0.0083;-7.3853;-12.3901;36.7432;-95.4712;-15.4962;-34.6674;35.1400 
728.483;0.1284;-1.0933;-0.0083;-7.3853;-12.3901;36.7432;-95.5096;-15.2765;-34.5850;35.1400 
728.483;0.1079;-1.0708;0.0073;-6.4697;0.9155;18.3105;-95.5206;-15.1556;-34.5630;35.0800 
728.483;0.1079;-1.0708;0.0073;-6.4697;0.9155;18.3105;-95.5371;-15.0403;-34.5465;35.0800 
728.483;0.1079;-1.0708;0.0073;-6.4697;0.9155;18.3105;-95.5481;-14.9194;-34.5245;35.1100 
728.483;0.1079;-1.0708;0.0073;-6.4697;0.9155;18.3105;-95.5646;-14.7986;-34.5026;35.1100 
728.483;0.1079;-1.0708;0.0073;-6.4697;0.9155;18.3105;-95.5756;-14.6777;-34.4806;35.1600 
728.483;0.1079;-1.0708;0.0073;-6.4697;0.9155;18.3105;-95.5865;-14.5624;-34.4641;35.1600 
728.483;0.1079;-1.0708;0.0073;-6.4697;0.9155;18.3105;-95.6030;-14.4415;-34.4421;35.1200 
728.483;0.1079;-1.0708;0.0073;-6.4697;0.9155;18.3105;-95.6140;-14.3262;-34.4257;35.1200 
728.483;0.1104;-1.0454;0.0112;-4.3945;7.7515;3.9063;-95.6085;-14.2822;-34.4312;35.1100 
728.483;0.1104;-1.0454;0.0112;-4.3945;7.7515;3.9063;-95.6085;-14.2383;-34.4421;35.1100 
728.483;0.1104;-1.0454;0.0112;-4.3945;7.7515;3.9063;-95.6030;-14.1998;-34.4476;35.0800 
728.483;0.1104;-1.0454;0.0112;-4.3945;7.7515;3.9063;-95.5975;-14.1559;-34.4586;35.0800 
728.483;0.1104;-1.0454;0.0112;-4.3945;7.7515;3.9063;-95.5920;-14.1119;-34.4641;35.0800 
728.483;0.1104;-1.0454;0.0112;-4.3945;7.7515;3.9063;-95.5865;-14.0735;-34.4751;35.0800 
728.483;0.1104;-1.0454;0.0112;-4.3945;7.7515;3.9063;-95.5811;-14.0295;-34.4806;35.1000 
728.483;0.1104;-1.0454;0.0112;-4.3945;7.7515;3.9063;-95.5811;-13.9911;-34.4861;35.1000 
728.483;0.1245;-1.0244;0.0068;-2.1973;9.3994;-4.6387;-95.5646;-13.9966;-34.4971;35.1000 
728.483;0.1245;-1.0244;0.0068;-2.1973;9.3994;-4.6387;-95.5481;-14.0021;-34.5081;35.1400 
728.493;0.1245;-1.0244;0.0068;-2.1973;9.3994;-4.6387;-95.5316;-14.0021;-34.5190;35.1400 
728.493;0.1245;-1.0244;0.0068;-2.1973;9.3994;-4.6387;-95.5151;-14.0076;-34.5300;35.0800 
728.503;0.1245;-1.0244;0.0068;-2.1973;9.3994;-4.6387;-95.4987;-14.0131;-34.5410;35.0800 
728.503;0.1245;-1.0244;0.0068;-2.1973;9.3994;-4.6387;-95.4822;-14.0186;-34.5520;35.1200 
728.503;0.1245;-1.0244;0.0068;-2.1973;9.3994;-4.6387;-95.4712;-14.0240;-34.5575;35.1200 
728.503;0.1245;-1.0244;0.0068;-2.1973;9.3994;-4.6387;-95.4547;-14.0295;-34.5685;35.1000 
728.503;0.1411;-1.0107;0.0000;-0.4883;7.9346;-8.0566;-95.4327;-14.0515;-34.5685;35.1000 
728.503;0.1411;-1.0107;0.0000;-0.4883;7.9346;-8.0566;-95.4108;-14.0735;-34.5740;35.0900 
728.513;0.1411;-1.0107;0.0000;-0.4883;7.9346;-8.0566;-95.3888;-14.1010;-34.5740;35.0900 
728.513;0.1411;-1.0107;0.0000;-0.4883;7.9346;-8.0566;-95.3668;-14.1229;-34.5740;35.1200 
728.523;0.1411;-1.0107;0.0000;-0.4883;7.9346;-8.0566;-95.3503;-14.1449;-34.5740;35.1200 
728.523;0.1411;-1.0107;0.0000;-0.4883;7.9346;-8.0566;-95.3284;-14.1724;-34.5740;35.1100 
728.523;0.1411;-1.0107;0.0000;-0.4883;7.9346;-8.0566;-95.3064;-14.1943;-34.5795;35.1100 
728.523;0.1411;-1.0107;0.0000;-0.4883;7.9346;-8.0566;-95.2844;-14.2163;-34.5795;35.1100 
728.523;0.1553;-1.0044;-0.0073;0.4883;5.1270;-7.8125;-95.2679;-14.2383;-34.5630;35.1500 
728.523;0.1553;-1.0044;-0.0073;0.4883;5.1270;-7.8125;-95.2460;-14.2657;-34.5520;35.1500 
728.533;0.1553;-1.0044;-0.0073;0.4883;5.1270;-7.8125;-95.2240;-14.2877;-34.5355;35.1100 
728.533;0.1553;-1.0044;-0.0073;0.4883;5.1270;-7.8125;-95.2020;-14.3097;-34.5245;35.1100 
728.543;0.1553;-1.0044;-0.0073;0.4883;5.1270;-7.8125;-95.1855;-14.3317;-34.5081;35.1400 
728.543;0.1553;-1.0044;-0.0073;0.4883;5.1270;-7.8125;-95.1636;-14.3536;-34.4916;35.1400 
728.553;0.1553;-1.0044;-0.0073;0.4883;5.1270;-7.8125;-95.1416;-14.3811;-34.4806;35.1400 
728.553;0.1553;-1.0044;-0.0073;0.4883;5.1270;-7.8125;-95.1196;-14.4031;-34.4641;35.1400 
728.563;0.1641;-1.0039;-0.0122;0.9155;2.3804;-5.7983;-95.1031;-14.4141;-34.4366;35.1400 
728.563;0.1641;-1.0039;-0.0122;0.9155;2.3804;-5.7983;-95.0867;-14.4305;-34.4147;35.1400 
728.573;0.1641;-1.0039;-0.0122;0.9155;2.3804;-5.7983;-95.0647;-14.4415;-34.3872;35.1200 
728.573;0.1641;-1.0039;-0.0122;0.9155;2.3804;-5.7983;-95.0482;-14.4525;-34.3597;35.1200 
728.613;0.1641;-1.0039;-0.0122;0.9155;2.3804;-5.7983;-95.0262;-14.4690;-34.3323;35.1100 
728.623;0.1641;-1.0039;-0.0122;0.9155;2.3804;-5.7983;-95.0098;-14.4800;-34.3103;35.1100 
728.623;0.1641;-1.0039;-0.0122;0.9155;2.3804;-5.7983;-94.9933;-14.4965;-34.2828;35.1200 
728.633;0.1641;-1.0039;-0.0122;0.9155;2.3804;-5.7983;-94.9713;-14.5074;-34.2554;35.1200 
728.633;0.1685;-1.0063;-0.0146;0.9155;0.2441;-3.2349;-94.9603;-14.5074;-34.2224;35.1200 
728.633;0.1685;-1.0063;-0.0146;0.9155;0.2441;-3.2349;-94.9438;-14.5074;-34.1840;35.1300 
728.633;0.1685;-1.0063;-0.0146;0.9155;0.2441;-3.2349;-94.9274;-14.5074;-34.1510;35.1300 
728.723;0.1685;-1.0063;-0.0146;0.9155;0.2441;-3.2349;-94.9109;-14.5074;-34.1125;35.0900 
728.723;0.1685;-1.0063;-0.0146;0.9155;0.2441;-3.2349;-94.8944;-14.5074;-34.0796;35.0900 
728.723;0.1685;-1.0063;-0.0146;0.9155;0.2441;-3.2349;-94.8834;-14.5074;-34.0411;35.1000 
728.723;0.1685;-1.0063;-0.0146;0.9155;0.2441;-3.2349;-94.8669;-14.5074;-34.0082;35.1000 
728.733;0.1685;-1.0063;-0.0146;0.9155;0.2441;-3.2349;-94.8505;-14.5074;-33.9697;35.1100 
728.733;0.1689;-1.0098;-0.0151;0.6714;-0.8545;-1.0986;-94.8395;-14.4965;-33.9313;35.1100 
728.733;0.1689;-1.0098;-0.0151;0.6714;-0.8545;-1.0986;-94.8285;-14.4855;-33.8873;35.1500 
728.733;0.1689;-1.0098;-0.0151;0.6714;-0.8545;-1.0986;-94.8120;-14.4745;-33.8489;35.1500 
728.733;0.1689;-1.0098;-0.0151;0.6714;-0.8545;-1.0986;-94.8010;-14.4635;-33.8104;35.1000 
728.733;0.1689;-1.0098;-0.0151;0.6714;-0.8545;-1.0986;-94.7900;-14.4525;-33.7665;35.1000 
728.733;0.1689;-1.0098;-0.0151;0.6714;-0.8545;-1.0986;-94.7791;-14.4415;-33.7280;35.0800 
728.733;0.1689;-1.0098;-0.0151;0.6714;-0.8545;-1.0986;-94.7626;-14.4305;-33.6896;35.0800 
728.733;0.1689;-1.0098;-0.0151;0.6714;-0.8545;-1.0986;-94.7516;-14.4196;-33.6511;35.1500 
728.733;0.1670;-1.0127;-0.0151;0.3662;-1.2817;0.3052;-94.7406;-14.4031;-33.6072;35.1500 
728.733;0.1670;-1.0127;-0.0151;0.3662;-1.2817;0.3052;-94.7296;-14.3811;-33.5687;35.1500 
728.733;0.1670;-1.0127;-0.0151;0.3662;-1.2817;0.3052;-94.7186;-14.3646;-33.5248;35.0900 
728.733;0.1670;-1.0127;-0.0151;0.3662;-1.2817;0.3052;-94.7076;-14.3481;-33.4863;35.0900 
728.733;0.1670;-1.0127;-0.0151;0.3662;-1.2817;0.3052;-94.7021;-14.3262;-33.4424;35.1100 
728.733;0.1670;-1.0127;-0.0151;0.3662;-1.2817;0.3052;-94.6912;-14.3097;-33.4039;35.1100 
728.733;0.1670;-1.0127;-0.0151;0.3662;-1.2817;0.3052;-94.6802;-14.2932;-33.3600;35.1400 
728.743;0.1670;-1.0127;-0.0151;0.3662;-1.2817;0.3052;-94.6692;-14.2767;-33.3215;35.1400 
728.743;0.1650;-1.0146;-0.0137;0.1221;-1.1597;0.9766;-94.6582;-14.2548;-33.2831;35.1300 
728.743;0.1650;-1.0146;-0.0137;0.1221;-1.1597;0.9766;-94.6527;-14.2328;-33.2446;35.1300 
728.743;0.1650;-1.0146;-0.0137;0.1221;-1.1597;0.9766;-94.6417;-14.2108;-33.2062;35.0600 
728.753;0.1650;-1.0146;-0.0137;0.1221;-1.1597;0.9766;-94.6307;-14.1888;-33.1677;35.0600 
728.753;0.1650;-1.0146;-0.0137;0.1221;-1.1597;0.9766;-94.6198;-14.1669;-33.1293;35.1100 
728.753;0.1650;-1.0146;-0.0137;0.1221;-1.1597;0.9766;-94.6143;-14.1449;-33.0908;35.1100 
728.753;0.1650;-1.0146;-0.0137;0.1221;-1.1597;0.9766;-94.6033;-14.1284;-33.0524;35.0800 
728.763;0.1650;-1.0146;-0.0137;0.1221;-1.1597;0.9766;-94.5923;-14.1064;-33.0139;35.0800 
728.773;0.1631;-1.0156;-0.0127;0.0000;-0.7935;1.0376;-94.5868;-14.0845;-32.9755;35.1300 
728.773;0.1631;-1.0156;-0.0127;0.0000;-0.7935;1.0376;-94.5758;-14.0625;-32.9370;35.1300 
728.783;0.1631;-1.0156;-0.0127;0.0000;-0.7935;1.0376;-94.5648;-14.0405;-32.9041;35.1300 
728.783;0.1631;-1.0156;-0.0127;0.0000;-0.7935;1.0376;-94.5538;-14.0186;-32.8656;35.1000 
728.823;0.1631;-1.0156;-0.0127;0.0000;-0.7935;1.0376;-94.5483;-13.9966;-32.8326;35.1000 
728.823;0.1631;-1.0156;-0.0127;0.0000;-0.7935;1.0376;-94.5374;-13.9801;-32.7942;35.1100 
728.922;0.1631;-1.0156;-0.0127;0.0000;-0.7935;1.0376;-94.5264;-13.9581;-32.7612;35.1100 
728.922;0.1621;-1.0161;-0.0122;-0.1221;-0.4272;0.8545;-94.5209;-13.9362;-32.7283;35.1300 
728.942;0.1621;-1.0161;-0.0122;-0.1221;-0.4272;0.8545;-94.5099;-13.9142;-32.6953;35.1300 
728.942;0.1621;-1.0161;-0.0122;-0.1221;-0.4272;0.8545;-94.4989;-13.8977;-32.6624;35.2100 
728.942;0.1621;-1.0161;-0.0122;-0.1221;-0.4272;0.8545;-94.4934;-13.8757;-32.6294;35.2100 
728.942;0.1621;-1.0161;-0.0122;-0.1221;-0.4272;0.8545;-94.4824;-13.8593;-32.5964;35.1300 
728.942;0.1621;-1.0161;-0.0122;-0.1221;-0.4272;0.8545;-94.4714;-13.8373;-32.5635;35.1300 
728.942;0.1621;-1.0161;-0.0122;-0.1221;-0.4272;0.8545;-94.4659;-13.8153;-32.5305;35.0800 
728.942;0.1621;-1.0161;-0.0122;-0.1221;-0.4272;0.8545;-94.4550;-13.7988;-32.4976;35.0800 
728.942;0.1616;-1.0161;-0.0117;-0.1221;-0.1221;0.4883;-94.4440;-13.7823;-32.4701;35.1400 
728.942;0.1616;-1.0161;-0.0117;-0.1221;-0.1221;0.4883;-94.4385;-13.7604;-32.4371;35.1400 
728.942;0.1616;-1.0161;-0.0117;-0.1221;-0.1221;0.4883;-94.4275;-13.7439;-32.4097;35.1400 
728.942;0.1616;-1.0161;-0.0117;-0.1221;-0.1221;0.4883;-94.4165;-13.7274;-32.3767;35.1800 
728.942;0.1616;-1.0161;-0.0117;-0.1221;-0.1221;0.4883;-94.4055;-13.7109;-32.3492;35.1800 
728.942;0.1616;-1.0161;-0.0117;-0.1221;-0.1221;0.4883;-94.4000;-13.6945;-32.3163;35.1500 
728.942;0.1616;-1.0161;-0.0117;-0.1221;-0.1221;0.4883;-94.3890;-13.6780;-32.2888;35.1500 
728.942;0.1616;-1.0161;-0.0117;-0.1221;-0.1221;0.4883;-94.3781;-13.6560;-32.2559;35.1500 
728.942;0.1611;-1.0161;-0.0117;-0.0610;0.0610;0.1831;-94.3726;-13.6450;-32.2284;35.1500 
728.942;0.1611;-1.0161;-0.0117;-0.0610;0.0610;0.1831;-94.3616;-13.6285;-32.1954;35.1400 
728.942;0.1611;-1.0161;-0.0117;-0.0610;0.0610;0.1831;-94.3506;-13.6121;-32.1680;35.1400 
728.962;0.1611;-1.0161;-0.0117;-0.0610;0.0610;0.1831;-94.3396;-13.5956;-32.1405;35.1100 
728.982;0.1611;-1.0161;-0.0117;-0.0610;0.0610;0.1831;-94.3341;-13.5791;-32.1075;35.1100 
728.982;0.1611;-1.0161;-0.0117;-0.0610;0.0610;0.1831;-94.3231;-13.5626;-32.0801;35.1300 
728.992;0.1611;-1.0161;-0.0117;-0.0610;0.0610;0.1831;-94.3121;-13.5516;-32.0526;35.1300 
728.992;0.1611;-1.0161;-0.0117;-0.0610;0.0610;0.1831;-94.3011;-13.5352;-32.0251;35.1700 
729.012;0.1616;-1.0161;-0.0122;-0.0610;0.1221;0.0000;-94.2957;-13.5187;-31.9922;35.1700 
729.012;0.1616;-1.0161;-0.0122;-0.0610;0.1221;0.0000;-94.2847;-13.5077;-31.9647;35.1100 
729.022;0.1616;-1.0161;-0.0122;-0.0610;0.1221;0.0000;-94.2737;-13.4912;-31.9427;35.1100 
729.022;0.1616;-1.0161;-0.0122;-0.0610;0.1221;0.0000;-94.2627;-13.4747;-31.9153;35.1100 
729.122;0.1616;-1.0161;-0.0122;-0.0610;0.1221;0.0000;-94.2572;-13.4637;-31.8878;35.1000 
729.122;0.1616;-1.0161;-0.0122;-0.0610;0.1221;0.0000;-94.2462;-13.4473;-31.8604;35.1000 
729.132;0.1616;-1.0161;-0.0122;-0.0610;0.1221;0.0000;-94.2352;-13.4363;-31.8329;35.1100 
729.132;0.1616;-1.0161;-0.0122;-0.0610;0.1221;0.0000;-94.2242;-13.4198;-31.8054;35.1100 
729.132;0.1616;-1.0161;-0.0122;0.0000;0.1221;-0.1221;-94.2188;-13.4088;-31.7780;35.1400 
729.132;0.1616;-1.0161;-0.0122;0.0000;0.1221;-0.1221;-94.2078;-13.3923;-31.7505;35.1400 
729.132;0.1616;-1.0161;-0.0122;0.0000;0.1221;-0.1221;-94.1968;-13.3813;-31.7230;35.1300 
729.132;0.1616;-1.0161;-0.0122;0.0000;0.1221;-0.1221;-94.1858;-13.3704;-31.6956;35.1300 
729.132;0.1616;-1.0161;-0.0122;0.0000;0.1221;-0.1221;-94.1803;-13.3539;-31.6681;35.1000 
729.132;0.1616;-1.0161;-0.0122;0.0000;0.1221;-0.1221;-94.1693;-13.3429;-31.6406;35.1000 
729.132;0.1616;-1.0161;-0.0122;0.0000;0.1221;-0.1221;-94.1583;-13.3264;-31.6132;35.1700 
729.132;0.1616;-1.0161;-0.0122;0.0000;0.1221;-0.1221;-94.1473;-13.3154;-31.5912;35.1700 
729.152;0.1616;-1.0156;-0.0122;0.0000;0.0610;-0.1221;-94.1418;-13.3044;-31.5637;35.1400 
729.152;0.1616;-1.0156;-0.0122;0.0000;0.0610;-0.1221;-94.1309;-13.2880;-31.5363;35.1400 
729.152;0.1616;-1.0156;-0.0122;0.0000;0.0610;-0.1221;-94.1199;-13.2770;-31.5088;35.1200 
729.152;0.1616;-1.0156;-0.0122;0.0000;0.0610;-0.1221;-94.1089;-13.2660;-31.4813;35.1200 
729.162;0.1616;-1.0156;-0.0122;0.0000;0.0610;-0.1221;-94.1034;-13.2495;-31.4539;35.1200 
729.162;0.1616;-1.0156;-0.0122;0.0000;0.0610;-0.1221;-94.0924;-13.2385;-31.4264;35.1100 
729.182;0.1616;-1.0156;-0.0122;0.0000;0.0610;-0.1221;-94.0814;-13.2275;-31.3989;35.1100 
729.182;0.1616;-1.0156;-0.0122;0.0000;0.0610;-0.1221;-94.0759;-13.2111;-31.3715;35.1100 
729.192;0.1616;-1.0156;-0.0127;0.0000;0.0000;-0.1221;-94.0649;-13.2001;-31.3440;35.1100 
729.222;0.1616;-1.0156;-0.0127;0.0000;0.0000;-0.1221;-94.0540;-13.1891;-31.3165;35.1100 
729.222;0.1616;-1.0156;-0.0127;0.0000;0.0000;-0.1221;-94.0485;-13.1781;-31.2891;35.1100 
729.232;0.1616;-1.0156;-0.0127;0.0000;0.0000;-0.1221;-94.0375;-13.1616;-31.2616;35.1500 
729.232;0.1616;-1.0156;-0.0127;0.0000;0.0000;-0.1221;-94.0265;-13.1506;-31.2341;35.1500 
729.312;0.1616;-1.0156;-0.0127;0.0000;0.0000;-0.1221;-94.0210;-13.1396;-31.2012;35.0700 
729.312;0.1616;-1.0156;-0.0127;0.0000;0.0000;-0.1221;-94.0100;-13.1232;-31.1737;35.0700 
729.312;0.1616;-1.0156;-0.0127;0.0000;0.0000;-0.1221;-94.0045;-13.1122;-31.1462;35.1200 
729.312;0.1616;-1.0156;-0.0132;0.0000;0.0000;-0.0610;-93.9935;-13.1012;-31.1188;35.1200 
729.332;0.1616;-1.0156;-0.0132;0.0000;0.0000;-0.0610;-93.9825;-13.0902;-31.0913;35.1600 
729.332;0.1616;-1.0156;-0.0132;0.0000;0.0000;-0.0610;-93.9771;-13.0737;-31.0638;35.1600 
729.332;0.1616;-1.0156;-0.0132;0.0000;0.0000;-0.0610;-93.9661;-13.0627;-31.0364;35.1500 
729.332;0.1616;-1.0156;-0.0132;0.0000;0.0000;-0.0610;-93.9606;-13.0518;-31.0089;35.1500 
729.332;0.1616;-1.0156;-0.0132;0.0000;0.0000;-0.0610;-93.9496;-13.0353;-30.9869;35.1500 
729.332;0.1616;-1.0156;-0.0132;0.0000;0.0000;-0.0610;-93.9386;-13.0243;-30.9595;35.1500 
729.332;0.1616;-1.0156;-0.0132;0.0000;0.0000;-0.0610;-93.9331;-13.0133;-30.9320;35.1500 
729.332;0.1611;-1.0156;-0.0137;0.0000;0.0000;0.0000;-93.9221;-13.0023;-30.9100;35.1600 
729.332;0.1611;-1.0156;-0.0137;0.0000;0.0000;0.0000;-93.9166;-12.9858;-30.8826;35.1600 
729.332;0.1611;-1.0156;-0.0137;0.0000;0.0000;0.0000;-93.9056;-12.9749;-30.8551;35.1300 
729.342;0.1611;-1.0156;-0.0137;0.0000;0.0000;0.0000;-93.8947;-12.9639;-30.8331;35.1300 
729.342;0.1611;-1.0156;-0.0137;0.0000;0.0000;0.0000;-93.8892;-12.9529;-30.8057;35.1300 
729.342;0.1611;-1.0156;-0.0137;0.0000;0.0000;0.0000;-93.8782;-12.9364;-30.7782;35.1300 
729.342;0.1611;-1.0156;-0.0137;0.0000;0.0000;0.0000;-93.8727;-12.9254;-30.7507;35.1100 
729.352;0.1611;-1.0156;-0.0137;0.0000;0.0000;0.0000;-93.8617;-12.9144;-30.7288;35.1100 
729.352;0.1611;-1.0151;-0.0137;0.0000;0.0000;0.0000;-93.8562;-12.9034;-30.7013;35.1200 
729.362;0.1611;-1.0151;-0.0137;0.0000;0.0000;0.0000;-93.8452;-12.8870;-30.6738;35.1200 
729.362;0.1611;-1.0151;-0.0137;0.0000;0.0000;0.0000;-93.8397;-12.8760;-30.6519;35.1100 
729.382;0.1611;-1.0151;-0.0137;0.0000;0.0000;0.0000;-93.8287;-12.8650;-30.6244;35.1100 
729.382;0.1611;-1.0151;-0.0137;0.0000;0.0000;0.0000;-93.8232;-12.8540;-30.5969;35.1100 
729.382;0.1611;-1.0151;-0.0137;0.0000;0.0000;0.0000;-93.8123;-12.8375;-30.5750;35.1100 
729.382;0.1611;-1.0151;-0.0137;0.0000;0.0000;0.0000;-93.8068;-12.8265;-30.5475;35.1100 
729.392;0.1611;-1.0151;-0.0137;0.0000;0.0000;0.0000;-93.7958;-12.8156;-30.5255;35.1300 
729.402;0.1611;-1.0151;-0.0132;0.0000;0.0000;0.0000;-93.7903;-12.8046;-30.4980;35.1300 
729.402;0.1611;-1.0151;-0.0132;0.0000;0.0000;0.0000;-93.7793;-12.7936;-30.4761;35.1300 
729.512;0.1611;-1.0151;-0.0132;0.0000;0.0000;0.0000;-93.7738;-12.7771;-30.4486;35.1300 
729.512;0.1611;-1.0151;-0.0132;0.0000;0.0000;0.0000;-93.7628;-12.7661;-30.4211;35.1100 
729.532;0.1611;-1.0151;-0.0132;0.0000;0.0000;0.0000;-93.7573;-12.7551;-30.3992;35.1100 
729.532;0.1611;-1.0151;-0.0132;0.0000;0.0000;0.0000;-93.7463;-12.7441;-30.3717;35.1600 
729.532;0.1611;-1.0151;-0.0132;0.0000;0.0000;0.0000;-93.7354;-12.7332;-30.3497;35.1600 
729.532;0.1611;-1.0151;-0.0132;0.0000;0.0000;0.0000;-93.7299;-12.7222;-30.3278;35.0600 
729.532;0.1611;-1.0151;-0.0132;0.0000;0.0000;0.0000;-93.7189;-12.7112;-30.3058;35.0600 
729.532;0.1611;-1.0151;-0.0132;0.0000;0.0000;0.0000;-93.7134;-12.6947;-30.2783;35.1400 
729.532;0.1611;-1.0151;-0.0132;0.0000;0.0000;0.0000;-93.7024;-12.6837;-30.2563;35.1400 
729.532;0.1611;-1.0151;-0.0132;0.0000;0.0000;0.0000;-93.6969;-12.6727;-30.2344;35.1100 
729.532;0.1611;-1.0151;-0.0132;0.0000;0.0000;0.0000;-93.6914;-12.6617;-30.2069;35.1100 
729.532;0.1611;-1.0151;-0.0132;0.0000;0.0000;0.0000;-93.6804;-12.6508;-30.1849;35.1100 
729.532;0.1611;-1.0151;-0.0132;0.0000;0.0000;0.0000;-93.6749;-12.6398;-30.1630;35.1200 
729.532;0.1611;-1.0151;-0.0132;0.0000;0.0000;0.0000;-93.6639;-12.6288;-30.1355;35.1200 
729.532;0.1611;-1.0151;-0.0127;0.0000;0.0000;0.0000;-93.6584;-12.6178;-30.1135;35.1000 
729.532;0.1611;-1.0151;-0.0127;0.0000;0.0000;0.0000;-93.6475;-12.6068;-30.0861;35.1000 
729.532;0.1611;-1.0151;-0.0127;0.0000;0.0000;0.0000;-93.6420;-12.5958;-30.0641;35.1100 
729.532;0.1611;-1.0151;-0.0127;0.0000;0.0000;0.0000;-93.6310;-12.5848;-30.0366;35.1100 
729.532;0.1611;-1.0151;-0.0127;0.0000;0.0000;0.0000;-93.6255;-12.5739;-30.0146;35.1100 
729.532;0.1611;-1.0151;-0.0127;0.0000;0.0000;0.0000;-93.6145;-12.5629;-29.9927;35.1100 
729.552;0.1611;-1.0151;-0.0127;0.0000;0.0000;0.0000;-93.6090;-12.5464;-29.9652;35.0900 
729.552;0.1611;-1.0151;-0.0127;0.0000;0.0000;0.0000;-93.5980;-12.5354;-29.9432;35.0900 
729.552;0.1611;-1.0156;-0.0127;0.0000;0.0000;0.0000;-93.5925;-12.5244;-29.9213;35.0800 
729.552;0.1611;-1.0156;-0.0127;0.0000;0.0000;0.0000;-93.5815;-12.5134;-29.8938;35.0800 
729.562;0.1611;-1.0156;-0.0127;0.0000;0.0000;0.0000;-93.5760;-12.5024;-29.8718;35.1500 
729.562;0.1611;-1.0156;-0.0127;0.0000;0.0000;0.0000;-93.5706;-12.4915;-29.8499;35.1500 
729.562;0.1611;-1.0156;-0.0127;0.0000;0.0000;0.0000;-93.5596;-12.4805;-29.8279;35.0800 
729.562;0.1611;-1.0156;-0.0127;0.0000;0.0000;0.0000;-93.5541;-12.4695;-29.8059;35.0800 
729.582;0.1611;-1.0156;-0.0127;0.0000;0.0000;0.0000;-93.5431;-12.4585;-29.7839;35.0800 
729.582;0.1611;-1.0156;-0.0127;0.0000;0.0000;0.0000;-93.5376;-12.4475;-29.7620;35.1200 
729.582;0.1611;-1.0156;-0.0127;0.0000;0.0000;0.0000;-93.5266;-12.4365;-29.7400;35.1200 
729.582;0.1611;-1.0156;-0.0127;0.0000;0.0000;0.0000;-93.5211;-12.4310;-29.7125;35.1000 
729.582;0.1611;-1.0156;-0.0127;0.0000;0.0000;0.0000;-93.5156;-12.4200;-29.6906;35.1000 
729.582;0.1611;-1.0156;-0.0127;0.0000;0.0000;0.0000;-93.5046;-12.4091;-29.6686;35.1000 
729.582;0.1611;-1.0156;-0.0127;0.0000;0.0000;0.0000;-93.4991;-12.3981;-29.6466;35.1000 
729.582;0.1611;-1.0156;-0.0127;0.0000;0.0000;0.0000;-93.4882;-12.3871;-29.6246;35.1400 
729.582;0.1611;-1.0156;-0.0127;0.0000;0.0000;0.0000;-93.4827;-12.3761;-29.6027;35.1400 
729.602;0.1611;-1.0156;-0.0127;0.0000;0.0000;0.0000;-93.4772;-12.3651;-29.5807;35.1600 
729.602;0.1611;-1.0156;-0.0127;0.0000;0.0000;0.0000;-93.4662;-12.3541;-29.5642;35.1600 
729.602;0.1611;-1.0156;-0.0127;0.0000;0.0000;0.0000;-93.4607;-12.3431;-29.5422;35.1600 
729.602;0.1611;-1.0156;-0.0127;0.0000;0.0000;0.0000;-93.4497;-12.3322;-29.5203;35.1600 
729.602;0.1611;-1.0156;-0.0127;0.0000;0.0000;0.0000;-93.4442;-12.3212;-29.4983;35.1200 
729.602;0.1611;-1.0156;-0.0127;0.0000;0.0000;0.0000;-93.4387;-12.3102;-29.4763;35.1200 
729.602;0.1611;-1.0156;-0.0127;0.0000;0.0000;0.0000;-93.4277;-12.2992;-29.4543;35.1400 
729.602;0.1611;-1.0156;-0.0127;0.0000;0.0000;0.0000;-93.4222;-12.2937;-29.4324;35.1400 
729.612;0.1611;-1.0156;-0.0127;0.0000;0.0000;0.0000;-93.4113;-12.2827;-29.4159;35.1400 
729.612;0.1616;-1.0161;-0.0132;0.0000;0.0000;0.0000;-93.4058;-12.2717;-29.3939;35.2000 
729.612;0.1616;-1.0161;-0.0132;0.0000;0.0000;0.0000;-93.4003;-12.2607;-29.3719;35.2000 
729.612;0.1616;-1.0161;-0.0132;0.0000;0.0000;0.0000;-93.3893;-12.2498;-29.3500;35.1100 
729.612;0.1616;-1.0161;-0.0132;0.0000;0.0000;0.0000;-93.3838;-12.2388;-29.3280;35.1100 
729.612;0.1616;-1.0161;-0.0132;0.0000;0.0000;0.0000;-93.3783;-12.2278;-29.3060;35.1300 
729.612;0.1616;-1.0161;-0.0132;0.0000;0.0000;0.0000;-93.3673;-12.2223;-29.2841;35.1300 
729.612;0.1616;-1.0161;-0.0132;0.0000;0.0000;0.0000;-93.3618;-12.2113;-29.2621;35.0900 
729.622;0.1616;-1.0161;-0.0132;0.0000;0.0000;0.0000;-93.3563;-12.2003;-29.2401;35.0900 
729.622;0.1616;-1.0156;-0.0132;0.0000;0.0000;0.0000;-93.3453;-12.1893;-29.2236;35.1100 
729.622;0.1616;-1.0156;-0.0132;0.0000;0.0000;0.0000;-93.3398;-12.1783;-29.2017;35.1100 
729.622;0.1616;-1.0156;-0.0132;0.0000;0.0000;0.0000;-93.3344;-12.1729;-29.1797;35.1700 
729.712;0.1616;-1.0156;-0.0132;0.0000;0.0000;0.0000;-93.3234;-12.1619;-29.1632;35.1700 
729.712;0.1616;-1.0156;-0.0132;0.0000;0.0000;0.0000;-93.3179;-12.1509;-29.1412;35.0700 
729.732;0.1616;-1.0156;-0.0132;0.0000;0.0000;0.0000;-93.3124;-12.1399;-29.1248;35.0700 
729.732;0.1616;-1.0156;-0.0132;0.0000;0.0000;0.0000;-93.3014;-12.1289;-29.1028;35.0700 
729.732;0.1616;-1.0156;-0.0132;0.0000;0.0000;0.0000;-93.2959;-12.1234;-29.0863;35.1400 
729.732;0.1611;-1.0156;-0.0132;0.0000;0.0000;0.0000;-93.2904;-12.1124;-29.0643;35.1400 
729.732;0.1611;-1.0156;-0.0132;0.0000;0.0000;0.0000;-93.2794;-12.1014;-29.0424;35.0800 
729.732;0.1611;-1.0156;-0.0132;0.0000;0.0000;0.0000;-93.2739;-12.0905;-29.0259;35.0800 
729.732;0.1611;-1.0156;-0.0132;0.0000;0.0000;0.0000;-93.2684;-12.0850;-29.0039;35.0900 
729.732;0.1611;-1.0156;-0.0132;0.0000;0.0000;0.0000;-93.2629;-12.0740;-28.9874;35.0900 
729.732;0.1611;-1.0156;-0.0132;0.0000;0.0000;0.0000;-93.2520;-12.0630;-28.9655;35.1100 
729.732;0.1611;-1.0156;-0.0132;0.0000;0.0000;0.0000;-93.2465;-12.0520;-28.9490;35.1100 
729.732;0.1611;-1.0156;-0.0132;0.0000;0.0000;0.0000;-93.2410;-12.0465;-28.9270;35.1000 
729.732;0.1611;-1.0156;-0.0132;0.0000;0.0000;0.0000;-93.2300;-12.0355;-28.9105;35.1000 
729.732;0.1611;-1.0156;-0.0132;0.0000;0.0000;0.0000;-93.2245;-12.0245;-28.8885;35.1100 
729.732;0.1611;-1.0156;-0.0132;0.0000;0.0000;0.0000;-93.2190;-12.0190;-28.8721;35.1100 
729.732;0.1611;-1.0156;-0.0132;0.0000;0.0000;0.0000;-93.2135;-12.0081;-28.8501;35.1100 
729.732;0.1611;-1.0156;-0.0132;0.0000;0.0000;0.0000;-93.2025;-11.9971;-28.8336;35.1100 
729.732;0.1611;-1.0156;-0.0132;0.0000;0.0000;0.0000;-93.1970;-11.9861;-28.8116;35.1300 
729.732;0.1611;-1.0156;-0.0132;0.0000;0.0000;0.0000;-93.1915;-11.9806;-28.7952;35.1300 
729.732;0.1611;-1.0156;-0.0132;0.0000;0.0000;0.0000;-93.1860;-11.9696;-28.7732;35.1300 
729.742;0.1611;-1.0156;-0.0132;0.0000;0.0000;0.0000;-93.1750;-11.9586;-28.7567;35.1200 
729.742;0.1611;-1.0156;-0.0132;0.0000;0.0000;0.0000;-93.1696;-11.9531;-28.7347;35.1200 
729.752;0.1611;-1.0156;-0.0132;0.0000;0.0000;0.0000;-93.1641;-11.9421;-28.7183;35.1900 
729.752;0.1611;-1.0156;-0.0132;0.0000;0.0000;0.0000;-93.1586;-11.9312;-28.6963;35.1900 
729.762;0.1611;-1.0156;-0.0132;0.0000;0.0000;0.0000;-93.1476;-11.9257;-28.6798;35.0500 
729.762;0.1611;-1.0156;-0.0132;0.0000;0.0000;0.0000;-93.1421;-11.9147;-28.6578;35.0500 
729.762;0.1611;-1.0156;-0.0132;0.0000;0.0000;0.0000;-93.1366;-11.9037;-28.6414;35.2000 
729.762;0.1611;-1.0156;-0.0132;0.0000;0.0000;0.0000;-93.1311;-11.8982;-28.6194;35.2000 
729.792;0.1611;-1.0151;-0.0132;0.0000;0.0000;0.0000;-93.1201;-11.8872;-28.6029;35.0600 
729.792;0.1611;-1.0151;-0.0132;0.0000;0.0000;0.0000;-93.1146;-11.8762;-28.5809;35.0600 
729.812;0.1611;-1.0151;-0.0132;0.0000;0.0000;0.0000;-93.1091;-11.8707;-28.5645;35.1500 
729.812;0.1611;-1.0151;-0.0132;0.0000;0.0000;0.0000;-93.1036;-11.8597;-28.5425;35.1500 
729.822;0.1611;-1.0151;-0.0132;0.0000;0.0000;0.0000;-93.0981;-11.8542;-28.5260;35.1400 
729.822;0.1611;-1.0151;-0.0132;0.0000;0.0000;0.0000;-93.0872;-11.8433;-28.5095;35.1400 
729.912;0.1611;-1.0151;-0.0132;0.0000;0.0000;0.0000;-93.0817;-11.8323;-28.4875;35.2100 
729.912;0.1611;-1.0151;-0.0132;0.0000;0.0000;0.0000;-93.0762;-11.8268;-28.4711;35.2100 
729.912;0.1611;-1.0151;-0.0127;0.0000;0.0000;0.0000;-93.0707;-11.8158;-28.4491;35.2100 
729.932;0.1611;-1.0151;-0.0127;0.0000;0.0000;0.0000;-93.0652;-11.8103;-28.4326;35.0800 
729.932;0.1611;-1.0151;-0.0127;0.0000;0.0000;0.0000;-93.0542;-11.7993;-28.4106;35.0800 
729.932;0.1611;-1.0151;-0.0127;0.0000;0.0000;0.0000;-93.0487;-11.7883;-28.3942;35.0600 
729.932;0.1611;-1.0151;-0.0127;0.0000;0.0000;0.0000;-93.0432;-11.7828;-28.3722;35.0600 
729.932;0.1611;-1.0151;-0.0127;0.0000;0.0000;0.0000;-93.0377;-11.7719;-28.3502;35.1400 
729.932;0.1611;-1.0151;-0.0127;0.0000;0.0000;0.0000;-93.0322;-11.7664;-28.3337;35.1400 
729.932;0.1611;-1.0151;-0.0127;0.0000;0.0000;0.0000;-93.0212;-11.7554;-28.3118;35.0400 
729.932;0.1611;-1.0151;-0.0122;0.0000;0.0000;0.0000;-93.0157;-11.7444;-28.2953;35.0400 
729.932;0.1611;-1.0151;-0.0122;0.0000;0.0000;0.0000;-93.0103;-11.7389;-28.2788;35.1200 
729.932;0.1611;-1.0151;-0.0122;0.0000;0.0000;0.0000;-93.0048;-11.7279;-28.2568;35.1200 
729.932;0.1611;-1.0151;-0.0122;0.0000;0.0000;0.0000;-92.9993;-11.7224;-28.2404;35.1300 
729.932;0.1611;-1.0151;-0.0122;0.0000;0.0000;0.0000;-92.9883;-11.7114;-28.2239;35.1300 
729.932;0.1611;-1.0151;-0.0122;0.0000;0.0000;0.0000;-92.9828;-11.7059;-28.2019;35.1100 
729.932;0.1611;-1.0151;-0.0122;0.0000;0.0000;0.0000;-92.9773;-11.6949;-28.1854;35.1100 
729.932;0.1611;-1.0151;-0.0122;0.0000;0.0000;0.0000;-92.9718;-11.6895;-28.1689;35.1400 
729.932;0.1611;-1.0151;-0.0122;0.0000;0.0000;0.0000;-92.9663;-11.6785;-28.1470;35.1400 
729.932;0.1611;-1.0151;-0.0122;0.0000;0.0000;0.0000;-92.9608;-11.6730;-28.1305;35.1400 
729.932;0.1611;-1.0151;-0.0122;0.0000;0.0000;0.0000;-92.9498;-11.6620;-28.1140;35.0900 
729.932;0.1611;-1.0151;-0.0122;0.0000;0.0000;0.0000;-92.9443;-11.6565;-28.0975;35.0900 
729.932;0.1611;-1.0151;-0.0122;0.0000;0.0000;0.0000;-92.9388;-11.6455;-28.0811;35.1900 
729.932;0.1611;-1.0151;-0.0122;0.0000;0.0000;0.0000;-92.9333;-11.6400;-28.0591;35.1900 
729.932;0.1611;-1.0151;-0.0122;0.0000;0.0000;0.0000;-92.9279;-11.6290;-28.0426;35.1400 
729.942;0.1611;-1.0151;-0.0122;0.0000;0.0000;0.0000;-92.9224;-11.6235;-28.0261;35.1400 
729.942;0.1616;-1.0156;-0.0122;0.0000;0.0000;0.0000;-92.9114;-11.6125;-28.0042;35.1300 
729.942;0.1616;-1.0156;-0.0122;0.0000;0.0000;0.0000;-92.9059;-11.6071;-27.9877;35.1300 
729.942;0.1616;-1.0156;-0.0122;0.0000;0.0000;0.0000;-92.9004;-11.5961;-27.9712;35.1500 
729.952;0.1616;-1.0156;-0.0122;0.0000;0.0000;0.0000;-92.8949;-11.5906;-27.9492;35.1500 
729.952;0.1616;-1.0156;-0.0122;0.0000;0.0000;0.0000;-92.8894;-11.5796;-27.9327;35.1800 
729.952;0.1616;-1.0156;-0.0122;0.0000;0.0000;0.0000;-92.8839;-11.5741;-27.9163;35.1800 
729.952;0.1616;-1.0156;-0.0122;0.0000;0.0000;0.0000;-92.8784;-11.5686;-27.8998;35.1600 
729.952;0.1616;-1.0156;-0.0122;0.0000;0.0000;0.0000;-92.8674;-11.5576;-27.8833;35.1600 
729.962;0.1616;-1.0161;-0.0122;0.0000;0.0000;0.0000;-92.8619;-11.5521;-27.8668;35.1200 
729.962;0.1616;-1.0161;-0.0122;0.0000;0.0000;0.0000;-92.8564;-11.5411;-27.8503;35.1200 
729.972;0.1616;-1.0161;-0.0122;0.0000;0.0000;0.0000;-92.8510;-11.5356;-27.8339;35.1200 
729.972;0.1616;-1.0161;-0.0122;0.0000;0.0000;0.0000;-92.8455;-11.5247;-27.8174;35.1200 
729.992;0.1616;-1.0161;-0.0122;0.0000;0.0000;0.0000;-92.8400;-11.5192;-27.7954;35.1200 
729.992;0.1616;-1.0161;-0.0122;0.0000;0.0000;0.0000;-92.8345;-11.5137;-27.7789;35.1100 
729.992;0.1616;-1.0161;-0.0122;0.0000;0.0000;0.0000;-92.8290;-11.5027;-27.7625;35.1100 
729.992;0.1616;-1.0161;-0.0122;0.0000;0.0000;0.0000;-92.8180;-11.4972;-27.7460;35.0700 
729.992;0.1616;-1.0161;-0.0122;0.0000;0.0000;0.0000;-92.8125;-11.4862;-27.7295;35.0700 
729.992;0.1616;-1.0161;-0.0122;0.0000;0.0000;0.0000;-92.8070;-11.4807;-27.7130;35.1200 
730.002;0.1616;-1.0161;-0.0122;0.0000;0.0000;0.0000;-92.8015;-11.4752;-27.6965;35.1200 
730.002;0.1616;-1.0161;-0.0122;0.0000;0.0000;0.0000;-92.7960;-11.4642;-27.6855;35.0900 
730.002;0.1616;-1.0161;-0.0122;0.0000;0.0000;0.0000;-92.7905;-11.4587;-27.6691;35.0900 
730.002;0.1616;-1.0161;-0.0122;0.0000;0.0000;0.0000;-92.7850;-11.4478;-27.6526;35.1700 
730.032;0.1616;-1.0161;-0.0122;0.0000;0.0000;0.0000;-92.7795;-11.4423;-27.6361;35.1700 
730.032;0.1616;-1.0161;-0.0122;0.0000;0.0000;0.0000;-92.7740;-11.4368;-27.6196;35.1700 
730.102;0.1621;-1.0166;-0.0122;0.0000;0.0000;0.0000;-92.7686;-11.4258;-27.6031;35.1700 
730.102;0.1621;-1.0166;-0.0122;0.0000;0.0000;0.0000;-92.7631;-11.4203;-27.5867;35.1700 
730.112;0.1621;-1.0166;-0.0122;0.0000;0.0000;0.0000;-92.7521;-11.4148;-27.5702;35.1200 
730.112;0.1621;-1.0166;-0.0122;0.0000;0.0000;0.0000;-92.7466;-11.4038;-27.5537;35.1200 
730.112;0.1621;-1.0166;-0.0122;0.0000;0.0000;0.0000;-92.7411;-11.3983;-27.5372;35.1700 
730.112;0.1621;-1.0166;-0.0122;0.0000;0.0000;0.0000;-92.7356;-11.3928;-27.5208;35.1700 
730.112;0.1621;-1.0166;-0.0122;0.0000;0.0000;0.0000;-92.7301;-11.3818;-27.5043;35.1500 
730.112;0.1621;-1.0166;-0.0122;0.0000;0.0000;0.0000;-92.7246;-11.3763;-27.4933;35.1500 
730.122;0.1621;-1.0166;-0.0122;0.0000;0.0000;0.0000;-92.7191;-11.3708;-27.4768;35.1700 
730.122;0.1621;-1.0166;-0.0122;0.0000;0.0000;0.0000;-92.7136;-11.3599;-27.4603;35.1700 
730.142;0.1621;-1.0166;-0.0122;0.0000;0.0000;0.0000;-92.7081;-11.3544;-27.4438;35.1000 
730.142;0.1621;-1.0166;-0.0122;0.0000;0.0000;0.0000;-92.7026;-11.3489;-27.4329;35.1000 
730.162;0.1621;-1.0166;-0.0122;0.0000;0.0000;0.0000;-92.6971;-11.3434;-27.4164;35.1000 
730.162;0.1621;-1.0166;-0.0122;0.0000;0.0000;0.0000;-92.6917;-11.3324;-27.3999;35.1000 
730.182;0.1621;-1.0166;-0.0122;0.0000;0.0000;0.0000;-92.6862;-11.3269;-27.3834;35.1400 
730.182;0.1621;-1.0166;-0.0122;0.0000;0.0000;0.0000;-92.6807;-11.3214;-27.3724;35.1400 
730.192;0.1621;-1.0166;-0.0122;0.0000;0.0000;0.0000;-92.6752;-11.3104;-27.3560;35.1600 
730.202;0.1621;-1.0166;-0.0122;0.0000;0.0000;0.0000;-92.6697;-11.3049;-27.3395;35.1600 
730.202;0.1621;-1.0166;-0.0122;0.0000;0.0000;0.0000;-92.6642;-11.2994;-27.3285;35.1600 
730.202;0.1621;-1.0166;-0.0122;0.0000;0.0000;0.0000;-92.6587;-11.2939;-27.3120;35.1400 
730.202;0.1621;-1.0166;-0.0122;0.0000;0.0000;0.0000;-92.6477;-11.2830;-27.2955;35.1400 
730.202;0.1621;-1.0166;-0.0122;0.0000;0.0000;0.0000;-92.6422;-11.2775;-27.2845;35.1600 
730.202;0.1621;-1.0166;-0.0122;0.0000;0.0000;0.0000;-92.6367;-11.2720;-27.2681;35.1600 
730.212;0.1621;-1.0166;-0.0122;0.0000;0.0000;0.0000;-92.6312;-11.2665;-27.2516;35.1600 
730.212;0.1621;-1.0166;-0.0122;0.0000;0.0000;0.0000;-92.6257;-11.2555;-27.2351;35.1600 
730.212;0.1621;-1.0166;-0.0122;0.0000;0.0000;0.0000;-92.6202;-11.2500;-27.2186;35.1200 
730.212;0.1621;-1.0166;-0.0122;0.0000;0.0000;0.0000;-92.6147;-11.2445;-27.2021;35.1200 
730.222;0.1621;-1.0166;-0.0122;0.0000;0.0000;0.0000;-92.6093;-11.2390;-27.1857;35.1100 
730.222;0.1621;-1.0166;-0.0122;0.0000;0.0000;0.0000;-92.6038;-11.2280;-27.1747;35.1100 
730.222;0.1621;-1.0166;-0.0122;0.0000;0.0000;0.0000;-92.5983;-11.2225;-27.1582;35.1300 
730.222;0.1621;-1.0166;-0.0122;0.0000;0.0000;0.0000;-92.5928;-11.2170;-27.1417;35.1300 
730.242;0.1621;-1.0166;-0.0122;0.0000;0.0000;0.0000;-92.5873;-11.2115;-27.1307;35.1600 
730.242;0.1621;-1.0161;-0.0117;0.0000;0.0000;0.0000;-92.5818;-11.2006;-27.1143;35.1600 
730.242;0.1621;-1.0161;-0.0117;0.0000;0.0000;0.0000;-92.5763;-11.1951;-27.0978;35.1200 
730.242;0.1621;-1.0161;-0.0117;0.0000;0.0000;0.0000;-92.5708;-11.1896;-27.0868;35.1200 
730.242;0.1621;-1.0161;-0.0117;0.0000;0.0000;0.0000;-92.5653;-11.1841;-27.0703;35.1200 
730.242;0.1621;-1.0161;-0.0117;0.0000;0.0000;0.0000;-92.5598;-11.1786;-27.0538;35.1100 
730.262;0.1621;-1.0161;-0.0117;0.0000;0.0000;0.0000;-92.5543;-11.1676;-27.0374;35.1100 
730.262;0.1621;-1.0161;-0.0117;0.0000;0.0000;0.0000;-92.5488;-11.1621;-27.0264;35.1200 
730.272;0.1621;-1.0161;-0.0117;0.0000;0.0000;0.0000;-92.5433;-11.1566;-27.0099;35.1200 
730.272;0.1626;-1.0161;-0.0122;0.0000;0.0000;0.0000;-92.5378;-11.1511;-26.9934;35.1100 
730.272;0.1626;-1.0161;-0.0122;0.0000;0.0000;0.0000;-92.5323;-11.1456;-26.9824;35.1100 
730.272;0.1626;-1.0161;-0.0122;0.0000;0.0000;0.0000;-92.5269;-11.1401;-26.9659;35.1100 
730.272;0.1626;-1.0161;-0.0122;0.0000;0.0000;0.0000;-92.5214;-11.1292;-26.9550;35.1100 
730.272;0.1626;-1.0161;-0.0122;0.0000;0.0000;0.0000;-92.5214;-11.1237;-26.9440;35.1000 
730.352;0.1626;-1.0161;-0.0122;0.0000;0.0000;0.0000;-92.5159;-11.1182;-26.9275;35.1000 
730.352;0.1626;-1.0161;-0.0122;0.0000;0.0000;0.0000;-92.5104;-11.1127;-26.9165;35.1800 
730.352;0.1626;-1.0161;-0.0122;0.0000;0.0000;0.0000;-92.5049;-11.1072;-26.9000;35.1800 
730.352;0.1626;-1.0161;-0.0122;0.0000;0.0000;0.0000;-92.4994;-11.1017;-26.8835;35.1400 
730.372;0.1626;-1.0161;-0.0122;0.0000;0.0000;0.0000;-92.4939;-11.0962;-26.8726;35.1400 
730.372;0.1626;-1.0161;-0.0122;0.0000;0.0000;0.0000;-92.4884;-11.0852;-26.8561;35.1200 
730.372;0.1626;-1.0161;-0.0122;0.0000;0.0000;0.0000;-92.4829;-11.0797;-26.8451;35.1200 
730.372;0.1626;-1.0161;-0.0122;0.0000;0.0000;0.0000;-92.4774;-11.0742;-26.8286;35.1200 
730.372;0.1626;-1.0161;-0.0122;0.0000;0.0000;0.0000;-92.4719;-11.0687;-26.8176;35.1600 
730.372;0.1626;-1.0161;-0.0122;0.0000;0.0000;0.0000;-92.4664;-11.0632;-26.8011;35.1600 
730.372;0.1626;-1.0161;-0.0122;0.0000;0.0000;0.0000;-92.4609;-11.0577;-26.7902;35.1200 
730.372;0.1626;-1.0161;-0.0127;0.0000;0.0000;0.0000;-92.4554;-11.0522;-26.7737;35.1200 
730.372;0.1626;-1.0161;-0.0127;0.0000;0.0000;0.0000;-92.4500;-11.0468;-26.7572;35.1500 
730.372;0.1626;-1.0161;-0.0127;0.0000;0.0000;0.0000;-92.4445;-11.0358;-26.7462;35.1500 
730.372;0.1626;-1.0161;-0.0127;0.0000;0.0000;0.0000;-92.4390;-11.0303;-26.7297;35.0900 
730.372;0.1626;-1.0161;-0.0127;0.0000;0.0000;0.0000;-92.4390;-11.0248;-26.7188;35.0900 
730.372;0.1626;-1.0161;-0.0127;0.0000;0.0000;0.0000;-92.4335;-11.0193;-26.7023;35.1600 
730.372;0.1626;-1.0161;-0.0127;0.0000;0.0000;0.0000;-92.4280;-11.0138;-26.6858;35.1600 
730.372;0.1626;-1.0161;-0.0127;0.0000;0.0000;0.0000;-92.4225;-11.0083;-26.6748;35.1200 
730.382;0.1621;-1.0156;-0.0127;0.0000;0.0000;0.0000;-92.4170;-11.0028;-26.6583;35.1200 
730.382;0.1621;-1.0156;-0.0127;0.0000;0.0000;0.0000;-92.4115;-10.9973;-26.6418;35.1400 
730.392;0.1621;-1.0156;-0.0127;0.0000;0.0000;0.0000;-92.4060;-10.9918;-26.6309;35.1400 
730.392;0.1621;-1.0156;-0.0127;0.0000;0.0000;0.0000;-92.4005;-10.9863;-26.6144;35.1400 
730.402;0.1621;-1.0156;-0.0127;0.0000;0.0000;0.0000;-92.3950;-10.9808;-26.5979;35.1500 
730.402;0.1621;-1.0156;-0.0127;0.0000;0.0000;0.0000;-92.3950;-10.9698;-26.5869;35.1500 
730.412;0.1621;-1.0156;-0.0127;0.0000;0.0000;0.0000;-92.3895;-10.9644;-26.5704;35.0800 
730.412;0.1621;-1.0156;-0.0127;0.0000;0.0000;0.0000;-92.3840;-10.9589;-26.5594;35.0800 
730.422;0.1621;-1.0156;-0.0132;0.0000;0.0000;0.0000;-92.3785;-10.9534;-26.5430;35.0900 
730.422;0.1621;-1.0156;-0.0132;0.0000;0.0000;0.0000;-92.3730;-10.9479;-26.5320;35.0900 
730.432;0.1621;-1.0156;-0.0132;0.0000;0.0000;0.0000;-92.3676;-10.9424;-26.5210;35.1400 
730.432;0.1621;-1.0156;-0.0132;0.0000;0.0000;0.0000;-92.3621;-10.9369;-26.5045;35.1400 
730.582;0.1621;-1.0156;-0.0132;0.0000;0.0000;0.0000;-92.3566;-10.9314;-26.4935;35.1600 
730.582;0.1621;-1.0156;-0.0132;0.0000;0.0000;0.0000;-92.3566;-10.9259;-26.4825;35.1600 
730.682;0.1621;-1.0156;-0.0132;0.0000;0.0000;0.0000;-92.3511;-10.9204;-26.4716;35.1400 
730.682;0.1621;-1.0156;-0.0132;0.0000;0.0000;0.0000;-92.3456;-10.9149;-26.4551;35.1400 
730.682;0.1621;-1.0156;-0.0132;0.0000;0.0000;0.0000;-92.3401;-10.9094;-26.4441;35.1600 
730.682;0.1621;-1.0156;-0.0132;0.0000;0.0000;0.0000;-92.3346;-10.9039;-26.4331;35.1600 
730.682;0.1621;-1.0156;-0.0132;0.0000;0.0000;0.0000;-92.3291;-10.8984;-26.4221;35.1700 
730.682;0.1621;-1.0156;-0.0132;0.0000;0.0000;0.0000;-92.3291;-10.8929;-26.4111;35.1700 
730.682;0.1621;-1.0156;-0.0132;0.0000;0.0000;0.0000;-92.3236;-10.8875;-26.3947;35.1700 
730.682;0.1621;-1.0156;-0.0132;0.0000;0.0000;0.0000;-92.3181;-10.8820;-26.3837;35.1100 
730.682;0.1621;-1.0156;-0.0132;0.0000;0.0000;0.0000;-92.3126;-10.8765;-26.3727;35.1100 
730.682;0.1621;-1.0156;-0.0132;0.0000;0.0000;0.0000;-92.3071;-10.8710;-26.3562;35.1100 
730.682;0.1616;-1.0156;-0.0127;0.0000;0.0000;0.0000;-92.3016;-10.8655;-26.3452;35.1100 
730.682;0.1616;-1.0156;-0.0127;0.0000;0.0000;0.0000;-92.3016;-10.8600;-26.3342;35.1300 
730.682;0.1616;-1.0156;-0.0127;0.0000;0.0000;0.0000;-92.2961;-10.8545;-26.3232;35.1300 
730.682;0.1616;-1.0156;-0.0127;0.0000;0.0000;0.0000;-92.2906;-10.8490;-26.3123;35.1200 
730.682;0.1616;-1.0156;-0.0127;0.0000;0.0000;0.0000;-92.2852;-10.8435;-26.3013;35.1200 
730.682;0.1616;-1.0156;-0.0127;0.0000;0.0000;0.0000;-92.2797;-10.8380;-26.2903;35.1100 
730.682;0.1616;-1.0156;-0.0127;0.0000;0.0000;0.0000;-92.2742;-10.8325;-26.2738;35.1100 
730.682;0.1616;-1.0156;-0.0127;0.0000;0.0000;0.0000;-92.2742;-10.8270;-26.2628;35.1300 
730.682;0.1616;-1.0151;-0.0127;0.0000;0.0000;0.0000;-92.2687;-10.8215;-26.2518;35.1300 
730.682;0.1616;-1.0151;-0.0127;0.0000;0.0000;0.0000;-92.2632;-10.8160;-26.2463;35.0800 
730.682;0.1616;-1.0151;-0.0127;0.0000;0.0000;0.0000;-92.2577;-10.8105;-26.2354;35.0800 
730.682;0.1616;-1.0151;-0.0127;0.0000;0.0000;0.0000;-92.2522;-10.8051;-26.2189;35.1200 
730.682;0.1616;-1.0151;-0.0127;0.0000;0.0000;0.0000;-92.2467;-10.7996;-26.2079;35.1200 
730.682;0.1616;-1.0151;-0.0127;0.0000;0.0000;0.0000;-92.2467;-10.7941;-26.1969;35.1200 
730.682;0.1616;-1.0151;-0.0127;0.0000;0.0000;0.0000;-92.2412;-10.7886;-26.1859;35.1000 
730.702;0.1616;-1.0151;-0.0127;0.0000;0.0000;0.0000;-92.2357;-10.7831;-26.1749;35.1000 
730.702;0.1616;-1.0151;-0.0127;0.0000;0.0000;0.0000;-92.2302;-10.7776;-26.1584;35.1600 
730.702;0.1616;-1.0151;-0.0127;0.0000;0.0000;0.0000;-92.2247;-10.7721;-26.1475;35.1600 
730.702;0.1616;-1.0151;-0.0127;0.0000;0.0000;0.0000;-92.2247;-10.7666;-26.1365;35.1600 
730.702;0.1616;-1.0151;-0.0127;0.0000;0.0000;0.0000;-92.2192;-10.7611;-26.1255;35.1600 
730.702;0.1616;-1.0151;-0.0127;0.0000;0.0000;0.0000;-92.2137;-10.7556;-26.1145;35.1000 
730.702;0.1616;-1.0151;-0.0127;0.0000;0.0000;0.0000;-92.2083;-10.7501;-26.1035;35.1000 
730.702;0.1616;-1.0151;-0.0127;0.0000;0.0000;0.0000;-92.2028;-10.7446;-26.0925;35.0600 
730.742;0.1616;-1.0151;-0.0127;0.0000;0.0000;0.0000;-92.2028;-10.7391;-26.0760;35.0600 
730.771;0.1616;-1.0151;-0.0127;0.0000;0.0000;0.0000;-92.1973;-10.7336;-26.0651;35.1700 
730.771;0.1616;-1.0151;-0.0127;0.0000;0.0000;0.0000;-92.1918;-10.7281;-26.0541;35.1700 
730.771;0.1616;-1.0151;-0.0127;0.0000;0.0000;0.0000;-92.1863;-10.7227;-26.0431;35.1300 
730.801;0.1616;-1.0151;-0.0127;0.0000;0.0000;0.0000;-92.1863;-10.7172;-26.0321;35.1300 
730.801;0.1616;-1.0151;-0.0127;0.0000;0.0000;0.0000;-92.1808;-10.7117;-26.0211;35.1500 
730.801;0.1616;-1.0151;-0.0127;0.0000;0.0000;0.0000;-92.1753;-10.7062;-26.0101;35.1500 
730.891;0.1616;-1.0151;-0.0127;0.0000;0.0000;0.0000;-92.1698;-10.7007;-25.9991;35.1500 
730.891;0.1616;-1.0151;-0.0127;0.0000;0.0000;0.0000;-92.1643;-10.6952;-25.9882;35.1000 
730.891;0.1621;-1.0151;-0.0127;0.0000;0.0000;0.0000;-92.1643;-10.6897;-25.9772;35.1000 
730.901;0.1621;-1.0151;-0.0127;0.0000;0.0000;0.0000;-92.1588;-10.6897;-25.9662;35.1400 
730.901;0.1621;-1.0151;-0.0127;0.0000;0.0000;0.0000;-92.1533;-10.6842;-25.9552;35.1400 
730.901;0.1621;-1.0151;-0.0127;0.0000;0.0000;0.0000;-92.1478;-10.6787;-25.9442;35.1400 
730.901;0.1621;-1.0151;-0.0127;0.0000;0.0000;0.0000;-92.1478;-10.6732;-25.9332;35.1400 
730.901;0.1621;-1.0151;-0.0127;0.0000;0.0000;0.0000;-92.1423;-10.6677;-25.9222;35.1500 
730.911;0.1621;-1.0151;-0.0127;0.0000;0.0000;0.0000;-92.1368;-10.6622;-25.9113;35.1500 
730.911;0.1621;-1.0151;-0.0127;0.0000;0.0000;0.0000;-92.1313;-10.6567;-25.9003;35.1100 
730.921;0.1616;-1.0151;-0.0122;0.0000;0.0000;0.0000;-92.1313;-10.6512;-25.8893;35.1100 
730.921;0.1616;-1.0151;-0.0122;0.0000;0.0000;0.0000;-92.1259;-10.6458;-25.8783;35.1400 
730.941;0.1616;-1.0151;-0.0122;0.0000;0.0000;0.0000;-92.1204;-10.6403;-25.8673;35.1400 
730.941;0.1616;-1.0151;-0.0122;0.0000;0.0000;0.0000;-92.1149;-10.6403;-25.8563;35.1000 
731.021;0.1616;-1.0151;-0.0122;0.0000;0.0000;0.0000;-92.1149;-10.6348;-25.8453;35.1000 
731.021;0.1616;-1.0151;-0.0122;0.0000;0.0000;0.0000;-92.1094;-10.6293;-25.8344;35.1000 
731.041;0.1616;-1.0151;-0.0122;0.0000;0.0000;0.0000;-92.1039;-10.6238;-25.8289;35.1000 
731.041;0.1616;-1.0151;-0.0122;0.0000;0.0000;0.0000;-92.0984;-10.6183;-25.8179;35.1000 
731.041;0.1621;-1.0156;-0.0122;0.0000;0.0000;0.0000;-92.0929;-10.6128;-25.8069;35.1700 
731.041;0.1621;-1.0156;-0.0122;0.0000;0.0000;0.0000;-92.0929;-10.6073;-25.7959;35.1700 
731.041;0.1621;-1.0156;-0.0122;0.0000;0.0000;0.0000;-92.0874;-10.6018;-25.7849;35.1600 
731.041;0.1621;-1.0156;-0.0122;0.0000;0.0000;0.0000;-92.0819;-10.6018;-25.7739;35.1600 
731.041;0.1621;-1.0156;-0.0122;0.0000;0.0000;0.0000;-92.0819;-10.5963;-25.7684;35.1400 
731.041;0.1621;-1.0156;-0.0122;0.0000;0.0000;0.0000;-92.0764;-10.5908;-25.7574;35.1400 
731.041;0.1621;-1.0156;-0.0122;0.0000;0.0000;0.0000;-92.0709;-10.5853;-25.7465;35.1400 
731.041;0.1621;-1.0156;-0.0122;0.0000;0.0000;0.0000;-92.0654;-10.5798;-25.7355;35.1400 
731.041;0.1616;-1.0156;-0.0117;0.0000;0.0000;0.0000;-92.0654;-10.5743;-25.7245;35.1100 
731.051;0.1616;-1.0156;-0.0117;0.0000;0.0000;0.0000;-92.0599;-10.5688;-25.7135;35.1100 
731.051;0.1616;-1.0156;-0.0117;0.0000;0.0000;0.0000;-92.0544;-10.5688;-25.7025;35.1700 
731.051;0.1616;-1.0156;-0.0117;0.0000;0.0000;0.0000;-92.0490;-10.5634;-25.6970;35.1700 
731.051;0.1616;-1.0156;-0.0117;0.0000;0.0000;0.0000;-92.0490;-10.5579;-25.6860;35.1200 
731.061;0.1616;-1.0156;-0.0117;0.0000;0.0000;0.0000;-92.0435;-10.5524;-25.6750;35.1200 
731.061;0.1616;-1.0156;-0.0117;0.0000;0.0000;0.0000;-92.0380;-10.5469;-25.6641;35.1200 
731.061;0.1616;-1.0156;-0.0117;0.0000;0.0000;0.0000;-92.0325;-10.5414;-25.6531;35.1200 
731.061;0.1616;-1.0161;-0.0112;0.0000;0.0000;0.0000;-92.0325;-10.5359;-25.6421;35.1200 
731.061;0.1616;-1.0161;-0.0112;0.0000;0.0000;0.0000;-92.0270;-10.5359;-25.6311;35.1500 
731.061;0.1616;-1.0161;-0.0112;0.0000;0.0000;0.0000;-92.0215;-10.5304;-25.6201;35.1500 
731.061;0.1616;-1.0161;-0.0112;0.0000;0.0000;0.0000;-92.0160;-10.5249;-25.6091;35.1400 
731.061;0.1616;-1.0161;-0.0112;0.0000;0.0000;0.0000;-92.0160;-10.5194;-25.5981;35.1400 
731.071;0.1616;-1.0161;-0.0112;0.0000;0.0000;0.0000;-92.0105;-10.5139;-25.5872;35.1500 
731.071;0.1616;-1.0161;-0.0112;0.0000;0.0000;0.0000;-92.0050;-10.5084;-25.5762;35.1500 
731.071;0.1616;-1.0161;-0.0112;0.0000;0.0000;0.0000;-91.9995;-10.5084;-25.5707;35.1000 
731.071;0.1616;-1.0156;-0.0112;0.0000;0.0000;0.0000;-91.9995;-10.5029;-25.5597;35.1000 
731.151;0.1616;-1.0156;-0.0112;0.0000;0.0000;0.0000;-91.9940;-10.4974;-25.5487;35.1100 
731.151;0.1616;-1.0156;-0.0112;0.0000;0.0000;0.0000;-91.9885;-10.4919;-25.5377;35.1100 
731.151;0.1616;-1.0156;-0.0112;0.0000;0.0000;0.0000;-91.9885;-10.4865;-25.5322;35.0500 
731.151;0.1616;-1.0156;-0.0112;0.0000;0.0000;0.0000;-91.9830;-10.4865;-25.5212;35.0500 
731.161;0.1616;-1.0156;-0.0112;0.0000;0.0000;0.0000;-91.9775;-10.4810;-25.5103;35.0700 
731.161;0.1616;-1.0156;-0.0112;0.0000;0.0000;0.0000;-91.9720;-10.4755;-25.5048;35.0700 
731.161;0.1616;-1.0156;-0.0112;0.0000;0.0000;0.0000;-91.9720;-10.4700;-25.4938;35.0700 
731.161;0.1616;-1.0156;-0.0117;0.0000;0.0000;0.0000;-91.9666;-10.4645;-25.4828;35.0600 
731.161;0.1616;-1.0156;-0.0117;0.0000;0.0000;0.0000;-91.9611;-10.4645;-25.4773;35.0600 
731.161;0.1616;-1.0156;-0.0117;0.0000;0.0000;0.0000;-91.9611;-10.4590;-25.4663;35.1700 
731.161;0.1616;-1.0156;-0.0117;0.0000;0.0000;0.0000;-91.9556;-10.4535;-25.4608;35.1700 
731.161;0.1616;-1.0156;-0.0117;0.0000;0.0000;0.0000;-91.9501;-10.4480;-25.4498;35.1100 
731.161;0.1616;-1.0156;-0.0117;0.0000;0.0000;0.0000;-91.9446;-10.4425;-25.4388;35.1100 
731.161;0.1616;-1.0156;-0.0117;0.0000;0.0000;0.0000;-91.9446;-10.4425;-25.4333;35.1700 
731.161;0.1616;-1.0156;-0.0117;0.0000;0.0000;0.0000;-91.9391;-10.4370;-25.4224;35.1700 
731.161;0.1621;-1.0156;-0.0117;0.0000;0.0000;0.0000;-91.9336;-10.4315;-25.4114;35.1600 
731.161;0.1621;-1.0156;-0.0117;0.0000;0.0000;0.0000;-91.9336;-10.4260;-25.4059;35.1600 
731.161;0.1621;-1.0156;-0.0117;0.0000;0.0000;0.0000;-91.9281;-10.4260;-25.3949;35.1100 
731.161;0.1621;-1.0156;-0.0117;0.0000;0.0000;0.0000;-91.9226;-10.4205;-25.3894;35.1100 
731.161;0.1621;-1.0156;-0.0117;0.0000;0.0000;0.0000;-91.9226;-10.4150;-25.3784;35.1700 
731.161;0.1621;-1.0156;-0.0117;0.0000;0.0000;0.0000;-91.9171;-10.4095;-25.3674;35.1700 
731.161;0.1621;-1.0156;-0.0117;0.0000;0.0000;0.0000;-91.9116;-10.4041;-25.3564;35.1500 
731.161;0.1621;-1.0156;-0.0117;0.0000;0.0000;0.0000;-91.9116;-10.4041;-25.3455;35.1500 
731.161;0.1621;-1.0156;-0.0122;0.0000;0.0000;0.0000;-91.9061;-10.3986;-25.3400;35.1500 
731.161;0.1621;-1.0156;-0.0122;0.0000;0.0000;0.0000;-91.9006;-10.3931;-25.3290;35.1600 
731.161;0.1621;-1.0156;-0.0122;0.0000;0.0000;0.0000;-91.9006;-10.3931;-25.3180;35.1600 
731.161;0.1621;-1.0156;-0.0122;0.0000;0.0000;0.0000;-91.8951;-10.3876;-25.3070;35.1500 
731.161;0.1621;-1.0156;-0.0122;0.0000;0.0000;0.0000;-91.8896;-10.3821;-25.2960;35.1500 
731.161;0.1621;-1.0156;-0.0122;0.0000;0.0000;0.0000;-91.8896;-10.3766;-25.2905;35.1000 
731.161;0.1621;-1.0156;-0.0122;0.0000;0.0000;0.0000;-91.8842;-10.3766;-25.2795;35.1000 
731.161;0.1621;-1.0156;-0.0122;0.0000;0.0000;0.0000;-91.8842;-10.3711;-25.2686;35.1400 
731.161;0.1621;-1.0156;-0.0127;0.0000;0.0000;0.0000;-91.8787;-10.3656;-25.2576;35.1400 
731.161;0.1621;-1.0156;-0.0127;0.0000;0.0000;0.0000;-91.8732;-10.3601;-25.2521;35.1100 
731.161;0.1621;-1.0156;-0.0127;0.0000;0.0000;0.0000;-91.8732;-10.3601;-25.2411;35.1100 
731.171;0.1621;-1.0156;-0.0127;0.0000;0.0000;0.0000;-91.8677;-10.3546;-25.2301;35.1600 
731.171;0.1621;-1.0156;-0.0127;0.0000;0.0000;0.0000;-91.8622;-10.3491;-25.2246;35.1600 
731.171;0.1621;-1.0156;-0.0127;0.0000;0.0000;0.0000;-91.8622;-10.3436;-25.2136;35.1200 
731.171;0.1621;-1.0156;-0.0127;0.0000;0.0000;0.0000;-91.8567;-10.3436;-25.2026;35.1200 
731.191;0.1621;-1.0156;-0.0127;0.0000;0.0000;0.0000;-91.8567;-10.3381;-25.1917;35.1300 
731.191;0.1621;-1.0156;-0.0127;0.0000;0.0000;0.0000;-91.8512;-10.3326;-25.1862;35.1300 
731.191;0.1621;-1.0156;-0.0127;0.0000;0.0000;0.0000;-91.8457;-10.3326;-25.1752;35.1300 
731.191;0.1621;-1.0156;-0.0127;0.0000;0.0000;0.0000;-91.8457;-10.3271;-25.1642;35.1100 
731.221;0.1621;-1.0156;-0.0127;0.0000;0.0000;0.0000;-91.8402;-10.3217;-25.1587;35.1100 
731.221;0.1621;-1.0156;-0.0127;0.0000;0.0000;0.0000;-91.8402;-10.3217;-25.1477;35.1300 
731.221;0.1621;-1.0156;-0.0127;0.0000;0.0000;0.0000;-91.8347;-10.3162;-25.1422;35.1300 
731.221;0.1621;-1.0156;-0.0127;0.0000;0.0000;0.0000;-91.8292;-10.3107;-25.1312;35.1300 
731.241;0.1621;-1.0156;-0.0127;0.0000;0.0000;0.0000;-91.8292;-10.3052;-25.1257;35.1300 
731.241;0.1621;-1.0151;-0.0127;0.0000;0.0000;0.0000;-91.8237;-10.3052;-25.1147;35.0900 
731.241;0.1621;-1.0151;-0.0127;0.0000;0.0000;0.0000;-91.8237;-10.2997;-25.1038;35.0900 
731.241;0.1621;-1.0151;-0.0127;0.0000;0.0000;0.0000;-91.8182;-10.2942;-25.0928;35.0900 
731.241;0.1621;-1.0151;-0.0127;0.0000;0.0000;0.0000;-91.8127;-10.2942;-25.0873;35.0900 
731.241;0.1621;-1.0151;-0.0127;0.0000;0.0000;0.0000;-91.8127;-10.2887;-25.0763;35.1300 
731.241;0.1621;-1.0151;-0.0127;0.0000;0.0000;0.0000;-91.8073;-10.2832;-25.0653;35.1300 
731.241;0.1621;-1.0151;-0.0127;0.0000;0.0000;0.0000;-91.8073;-10.2832;-25.0598;35.1400 
731.271;0.1621;-1.0151;-0.0127;0.0000;0.0000;0.0000;-91.8018;-10.2777;-25.0488;35.1400 
731.271;0.1616;-1.0151;-0.0127;0.0000;0.0000;0.0000;-91.7963;-10.2722;-25.0433;35.1400 
731.271;0.1616;-1.0151;-0.0127;0.0000;0.0000;0.0000;-91.7963;-10.2722;-25.0323;35.1600 
731.271;0.1616;-1.0151;-0.0127;0.0000;0.0000;0.0000;-91.7908;-10.2667;-25.0269;35.1600 
731.351;0.1616;-1.0151;-0.0127;0.0000;0.0000;0.0000;-91.7908;-10.2612;-25.0159;35.1400 
731.351;0.1616;-1.0151;-0.0127;0.0000;0.0000;0.0000;-91.7853;-10.2612;-25.0104;35.1400 
731.351;0.1616;-1.0151;-0.0127;0.0000;0.0000;0.0000;-91.7853;-10.2557;-24.9994;35.1100 
731.351;0.1616;-1.0151;-0.0127;0.0000;0.0000;0.0000;-91.7798;-10.2502;-24.9939;35.1100 
731.351;0.1616;-1.0151;-0.0127;0.0000;0.0000;0.0000;-91.7743;-10.2502;-24.9829;35.0700 
731.351;0.1616;-1.0156;-0.0122;0.0000;0.0000;0.0000;-91.7743;-10.2448;-24.9774;35.0700 
731.351;0.1616;-1.0156;-0.0122;0.0000;0.0000;0.0000;-91.7688;-10.2393;-24.9664;35.1000 
731.361;0.1616;-1.0156;-0.0122;0.0000;0.0000;0.0000;-91.7688;-10.2393;-24.9609;35.1000 
731.361;0.1616;-1.0156;-0.0122;0.0000;0.0000;0.0000;-91.7633;-10.2338;-24.9500;35.1300 
731.361;0.1616;-1.0156;-0.0122;0.0000;0.0000;0.0000;-91.7633;-10.2283;-24.9445;35.1300 
731.361;0.1616;-1.0156;-0.0122;0.0000;0.0000;0.0000;-91.7578;-10.2283;-24.9335;35.1300 
731.371;0.1616;-1.0156;-0.0122;0.0000;0.0000;0.0000;-91.7523;-10.2228;-24.9280;35.1300 
731.371;0.1616;-1.0156;-0.0122;0.0000;0.0000;0.0000;-91.7523;-10.2173;-24.9170;35.1400 
731.371;0.1616;-1.0156;-0.0122;0.0000;0.0000;0.0000;-91.7468;-10.2173;-24.9115;35.1400 
731.371;0.1616;-1.0156;-0.0122;0.0000;0.0000;0.0000;-91.7468;-10.2118;-24.9005;35.1400 
731.391;0.1616;-1.0156;-0.0122;0.0000;0.0000;0.0000;-91.7413;-10.2063;-24.8950;35.1600 
731.391;0.1616;-1.0156;-0.0122;0.0000;0.0000;0.0000;-91.7413;-10.2063;-24.8840;35.1600 
731.391;0.1616;-1.0156;-0.0122;0.0000;0.0000;0.0000;-91.7358;-10.2008;-24.8785;35.1100 
731.391;0.1616;-1.0156;-0.0122;0.0000;0.0000;0.0000;-91.7303;-10.1953;-24.8676;35.1100 
731.411;0.1616;-1.0156;-0.0122;0.0000;0.0000;0.0000;-91.7303;-10.1953;-24.8621;35.1900 
731.411;0.1616;-1.0156;-0.0117;0.0000;0.0000;0.0000;-91.7249;-10.1898;-24.8511;35.1900 
731.411;0.1616;-1.0156;-0.0117;0.0000;0.0000;0.0000;-91.7249;-10.1843;-24.8456;35.0700 
731.441;0.1616;-1.0156;-0.0117;0.0000;0.0000;0.0000;-91.7194;-10.1843;-24.8401;35.0700 
731.461;0.1616;-1.0156;-0.0117;0.0000;0.0000;0.0000;-91.7194;-10.1788;-24.8291;35.0900 
731.461;0.1616;-1.0156;-0.0117;0.0000;0.0000;0.0000;-91.7139;-10.1733;-24.8236;35.0900 
731.541;0.1616;-1.0156;-0.0117;0.0000;0.0000;0.0000;-91.7084;-10.1733;-24.8181;35.1200 
731.541;0.1616;-1.0156;-0.0117;0.0000;0.0000;0.0000;-91.7084;-10.1678;-24.8071;35.1200 
731.581;0.1616;-1.0156;-0.0117;0.0000;0.0000;0.0000;-91.7029;-10.1678;-24.8016;35.1300 
731.581;0.1616;-1.0161;-0.0117;0.0000;0.0000;0.0000;-91.7029;-10.1624;-24.7961;35.1300 
731.581;0.1616;-1.0161;-0.0117;0.0000;0.0000;0.0000;-91.6974;-10.1569;-24.7852;35.1100 
731.581;0.1616;-1.0161;-0.0117;0.0000;0.0000;0.0000;-91.6974;-10.1569;-24.7797;35.1100 
731.581;0.1616;-1.0161;-0.0117;0.0000;0.0000;0.0000;-91.6919;-10.1514;-24.7742;35.1100 
731.581;0.1616;-1.0161;-0.0117;0.0000;0.0000;0.0000;-91.6864;-10.1459;-24.7632;35.1700 
731.581;0.1616;-1.0161;-0.0117;0.0000;0.0000;0.0000;-91.6864;-10.1459;-24.7577;35.1700 
731.581;0.1616;-1.0161;-0.0117;0.0000;0.0000;0.0000;-91.6809;-10.1404;-24.7467;35.0700 
