Time;ax;ay;az;wx;wy;wz;AngleX;AngleY;AngleZ;T 
828.819;0.0024;-0.0029;0.9932;0.0000;0.0000;0.0000;-0.1044;-0.0989;-60.2930;35.0000 
828.819;0.0029;-0.0024;0.9932;0.0000;0.0000;0.0000;-0.1044;-0.0989;-60.2985;35.1000 
828.819;0.0029;-0.0024;0.9932;0.0000;0.0000;0.0000;-0.1044;-0.0989;-60.2985;35.1000 
828.819;0.0029;-0.0024;0.9932;0.0000;0.0000;0.0000;-0.1044;-0.1044;-60.2985;35.1000 
828.819;0.0029;-0.0024;0.9932;0.0000;0.0000;0.0000;-0.1044;-0.1044;-60.2985;35.0700 
828.819;0.0029;-0.0024;0.9932;0.0000;0.0000;0.0000;-0.1044;-0.1044;-60.2930;35.0700 
828.819;0.0029;-0.0024;0.9932;0.0000;0.0000;0.0000;-0.1044;-0.1044;-60.2930;35.0700 
828.819;0.0029;-0.0024;0.9932;0.0000;0.0000;0.0000;-0.1044;-0.1044;-60.2930;35.0700 
828.819;0.0029;-0.0024;0.9932;0.0000;0.0000;0.0000;-0.1044;-0.1044;-60.2930;35.0400 
828.819;0.0024;-0.0015;0.9927;0.0000;0.0000;0.0000;-0.1044;-0.1044;-60.2875;35.0400 
828.819;0.0024;-0.0015;0.9927;0.0000;0.0000;0.0000;-0.1044;-0.1044;-60.2875;35.0900 
828.819;0.0024;-0.0015;0.9927;0.0000;0.0000;0.0000;-0.1044;-0.1044;-60.2875;35.0900 
828.819;0.0024;-0.0015;0.9927;0.0000;0.0000;0.0000;-0.1044;-0.1044;-60.2820;35.0300 
828.819;0.0024;-0.0015;0.9927;0.0000;0.0000;0.0000;-0.1044;-0.1044;-60.2820;35.0300 
828.819;0.0024;-0.0015;0.9927;0.0000;0.0000;0.0000;-0.1044;-0.1044;-60.2765;35.1400 
828.819;0.0024;-0.0015;0.9927;0.0000;0.0000;0.0000;-0.1044;-0.1044;-60.2765;35.1400 
828.819;0.0024;-0.0015;0.9927;0.0000;0.0000;0.0000;-0.1044;-0.1044;-60.2765;35.0000 
828.839;0.0034;-0.0015;0.9937;0.0000;0.0000;0.0000;-0.1044;-0.1044;-60.2765;35.0000 
828.839;0.0034;-0.0015;0.9937;0.0000;0.0000;0.0000;-0.1044;-0.1044;-60.2765;35.0000 
828.839;0.0034;-0.0015;0.9937;0.0000;0.0000;0.0000;-0.1044;-0.1044;-60.2765;35.0300 
828.839;0.0034;-0.0015;0.9937;0.0000;0.0000;0.0000;-0.1044;-0.1044;-60.2710;35.0300 
828.839;0.0034;-0.0015;0.9937;0.0000;0.0000;0.0000;-0.1044;-0.1044;-60.2710;35.0900 
828.849;0.0034;-0.0015;0.9937;0.0000;0.0000;0.0000;-0.1044;-0.1044;-60.2710;35.0900 
828.849;0.0034;-0.0015;0.9937;0.0000;0.0000;0.0000;-0.1044;-0.1044;-60.2710;35.0700 
828.849;0.0034;-0.0015;0.9937;0.0000;0.0000;0.0000;-0.1044;-0.1044;-60.2710;35.0700 
828.849;0.0029;-0.0020;0.9932;0.0000;0.0000;0.0000;-0.1044;-0.1044;-60.2710;35.1300 
828.859;0.0029;-0.0020;0.9932;0.0000;0.0000;0.0000;-0.1044;-0.1044;-60.2710;35.1300 
828.859;0.0029;-0.0020;0.9932;0.0000;0.0000;0.0000;-0.1044;-0.1044;-60.2710;35.0300 
828.869;0.0029;-0.0020;0.9932;0.0000;0.0000;0.0000;-0.1044;-0.1044;-60.2710;35.0300 
828.869;0.0029;-0.0020;0.9932;0.0000;0.0000;0.0000;-0.1044;-0.1044;-60.2710;35.0900 
828.889;0.0029;-0.0020;0.9932;0.0000;0.0000;0.0000;-0.1044;-0.1044;-60.2710;35.0900 
828.889;0.0029;-0.0020;0.9932;0.0000;0.0000;0.0000;-0.1044;-0.1044;-60.2710;35.0800 
828.989;0.0029;-0.0020;0.9932;0.0000;0.0000;0.0000;-0.1044;-0.1044;-60.2710;35.0800 
828.989;0.0024;-0.0010;0.9937;0.0000;0.0000;0.0000;-0.1044;-0.1044;-60.2765;35.0500 
828.989;0.0024;-0.0010;0.9937;0.0000;0.0000;0.0000;-0.1044;-0.1044;-60.2765;35.0500 
828.989;0.0024;-0.0010;0.9937;0.0000;0.0000;0.0000;-0.1044;-0.1099;-60.2765;35.0500 
829.009;0.0024;-0.0010;0.9937;0.0000;0.0000;0.0000;-0.1044;-0.1099;-60.2820;35.0400 
829.009;0.0024;-0.0010;0.9937;0.0000;0.0000;0.0000;-0.1044;-0.1099;-60.2820;35.0400 
829.009;0.0024;-0.0010;0.9937;0.0000;0.0000;0.0000;-0.1044;-0.1099;-60.2820;35.1000 
829.009;0.0024;-0.0010;0.9937;0.0000;0.0000;0.0000;-0.1044;-0.1099;-60.2875;35.1000 
829.009;0.0024;-0.0010;0.9937;0.0000;0.0000;0.0000;-0.1044;-0.1099;-60.2875;35.0200 
829.009;0.0020;-0.0015;0.9937;0.0000;0.0000;0.0000;-0.1044;-0.1099;-60.2875;35.0200 
829.009;0.0020;-0.0015;0.9937;0.0000;0.0000;0.0000;-0.1044;-0.1099;-60.2875;35.0700 
829.009;0.0020;-0.0015;0.9937;0.0000;0.0000;0.0000;-0.1044;-0.1099;-60.2875;35.0700 
829.009;0.0020;-0.0015;0.9937;0.0000;0.0000;0.0000;-0.1044;-0.1099;-60.2875;35.0700 
829.009;0.0020;-0.0015;0.9937;0.0000;0.0000;0.0000;-0.1044;-0.1099;-60.2875;35.0700 
829.009;0.0020;-0.0015;0.9937;0.0000;0.0000;0.0000;-0.1044;-0.1099;-60.2875;35.0600 
829.009;0.0020;-0.0015;0.9937;0.0000;0.0000;0.0000;-0.1044;-0.1099;-60.2875;35.0600 
829.009;0.0020;-0.0015;0.9937;0.0000;0.0000;0.0000;-0.1044;-0.1099;-60.2875;35.0600 
829.009;0.0015;-0.0020;0.9937;0.0000;0.0000;0.0000;-0.1044;-0.1099;-60.2875;35.0600 
829.009;0.0015;-0.0020;0.9937;0.0000;0.0000;0.0000;-0.1044;-0.1099;-60.2875;35.0800 
829.009;0.0015;-0.0020;0.9937;0.0000;0.0000;0.0000;-0.1044;-0.1099;-60.2875;35.0800 
829.009;0.0015;-0.0020;0.9937;0.0000;0.0000;0.0000;-0.1044;-0.1099;-60.2875;35.0800 
829.019;0.0015;-0.0020;0.9937;0.0000;0.0000;0.0000;-0.1044;-0.1099;-60.2875;35.0800 
829.019;0.0015;-0.0020;0.9937;0.0000;0.0000;0.0000;-0.1044;-0.1044;-60.2875;35.0800 
829.019;0.0015;-0.0020;0.9937;0.0000;0.0000;0.0000;-0.1044;-0.1044;-60.2875;35.0800 
829.019;0.0015;-0.0020;0.9937;0.0000;0.0000;0.0000;-0.1044;-0.1044;-60.2875;35.0800 
829.029;0.0010;-0.0005;0.9932;0.0000;0.0000;0.0000;-0.1044;-0.1044;-60.2875;35.0400 
829.029;0.0010;-0.0005;0.9932;0.0000;0.0000;0.0000;-0.1044;-0.1044;-60.2875;35.0400 
829.029;0.0010;-0.0005;0.9932;0.0000;0.0000;0.0000;-0.0989;-0.1044;-60.2875;35.0000 
829.029;0.0010;-0.0005;0.9932;0.0000;0.0000;0.0000;-0.0989;-0.1044;-60.2875;35.0000 
829.039;0.0010;-0.0005;0.9932;0.0000;0.0000;0.0000;-0.0989;-0.1044;-60.2875;35.0700 
829.039;0.0010;-0.0005;0.9932;0.0000;0.0000;0.0000;-0.0989;-0.1044;-60.2875;35.0700 
829.049;0.0010;-0.0005;0.9932;0.0000;0.0000;0.0000;-0.0989;-0.1044;-60.2875;35.0600 
829.049;0.0010;-0.0005;0.9932;0.0000;0.0000;0.0000;-0.0989;-0.1044;-60.2875;35.0600 
829.059;0.0015;-0.0010;0.9932;0.0000;0.0000;0.0000;-0.0989;-0.1044;-60.2875;35.0900 
829.059;0.0015;-0.0010;0.9932;0.0000;0.0000;0.0000;-0.0989;-0.1044;-60.2875;35.0900 
829.069;0.0015;-0.0010;0.9932;0.0000;0.0000;0.0000;-0.0989;-0.1044;-60.2930;35.1000 
829.069;0.0015;-0.0010;0.9932;0.0000;0.0000;0.0000;-0.0989;-0.1044;-60.2930;35.1000 
829.079;0.0015;-0.0010;0.9932;0.0000;0.0000;0.0000;-0.0989;-0.1044;-60.2930;35.1000 
829.079;0.0015;-0.0010;0.9932;0.0000;0.0000;0.0000;-0.0989;-0.1044;-60.2930;35.0400 
829.089;0.0015;-0.0010;0.9932;0.0000;0.0000;0.0000;-0.0989;-0.1044;-60.2930;35.0400 
829.089;0.0015;-0.0010;0.9932;0.0000;0.0000;0.0000;-0.0989;-0.1044;-60.2930;35.1000 
829.099;0.0015;-0.0015;0.9927;0.0000;0.0000;0.0000;-0.0989;-0.1044;-60.2930;35.1000 
829.099;0.0015;-0.0015;0.9927;0.0000;0.0000;0.0000;-0.0989;-0.1044;-60.2875;35.0300 
829.199;0.0015;-0.0015;0.9927;0.0000;0.0000;0.0000;-0.0989;-0.1044;-60.2875;35.0300 
829.199;0.0015;-0.0015;0.9927;0.0000;0.0000;0.0000;-0.0989;-0.1044;-60.2875;35.0500 
829.219;0.0015;-0.0015;0.9927;0.0000;0.0000;0.0000;-0.0989;-0.1044;-60.2875;35.0500 
829.219;0.0015;-0.0015;0.9927;0.0000;0.0000;0.0000;-0.0989;-0.1044;-60.2820;34.9900 
829.219;0.0015;-0.0015;0.9927;0.0000;0.0000;0.0000;-0.0989;-0.1044;-60.2820;34.9900 
829.219;0.0015;-0.0015;0.9927;0.0000;0.0000;0.0000;-0.0989;-0.1044;-60.2820;35.0600 
829.219;0.0020;-0.0005;0.9927;0.0000;0.0000;0.0000;-0.0989;-0.1044;-60.2820;35.0600 
829.219;0.0020;-0.0005;0.9927;0.0000;0.0000;0.0000;-0.0989;-0.1044;-60.2820;34.9700 
829.219;0.0020;-0.0005;0.9927;0.0000;0.0000;0.0000;-0.0989;-0.1044;-60.2820;34.9700 
829.219;0.0020;-0.0005;0.9927;0.0000;0.0000;0.0000;-0.0989;-0.1044;-60.2820;34.9700 
829.219;0.0020;-0.0005;0.9927;0.0000;0.0000;0.0000;-0.0989;-0.1044;-60.2820;35.0500 
829.219;0.0020;-0.0005;0.9927;0.0000;0.0000;0.0000;-0.0989;-0.1044;-60.2820;35.0500 
829.219;0.0020;-0.0005;0.9927;0.0000;0.0000;0.0000;-0.0989;-0.1044;-60.2820;35.0500 
829.219;0.0020;-0.0005;0.9927;0.0000;0.0000;0.0000;-0.0989;-0.1044;-60.2820;35.0500 
829.219;0.0020;-0.0010;0.9922;0.0000;0.0000;0.0000;-0.0989;-0.1044;-60.2820;35.0100 
829.219;0.0020;-0.0010;0.9922;0.0000;0.0000;0.0000;-0.0989;-0.1044;-60.2820;35.0100 
829.219;0.0020;-0.0010;0.9922;0.0000;0.0000;0.0000;-0.0934;-0.1044;-60.2875;35.0800 
829.219;0.0020;-0.0010;0.9922;0.0000;0.0000;0.0000;-0.0934;-0.1044;-60.2875;35.0800 
829.219;0.0020;-0.0010;0.9922;0.0000;0.0000;0.0000;-0.0934;-0.1044;-60.2820;35.0500 
829.219;0.0020;-0.0010;0.9922;0.0000;0.0000;0.0000;-0.0934;-0.1044;-60.2820;35.0500 
829.219;0.0020;-0.0010;0.9922;0.0000;0.0000;0.0000;-0.0934;-0.1044;-60.2820;35.0300 
829.219;0.0020;-0.0010;0.9922;0.0000;0.0000;0.0000;-0.0934;-0.1044;-60.2765;35.0300 
829.219;0.0024;-0.0015;0.9932;0.0000;0.0000;0.0000;-0.0934;-0.1044;-60.2765;35.0600 
829.219;0.0024;-0.0015;0.9932;0.0000;0.0000;0.0000;-0.0934;-0.1044;-60.2765;35.0600 
829.219;0.0024;-0.0015;0.9932;0.0000;0.0000;0.0000;-0.0934;-0.1044;-60.2765;35.0700 
829.249;0.0024;-0.0015;0.9932;0.0000;0.0000;0.0000;-0.0934;-0.1044;-60.2710;35.0700 
829.249;0.0024;-0.0015;0.9932;0.0000;0.0000;0.0000;-0.0934;-0.1044;-60.2710;35.0700 
829.259;0.0024;-0.0015;0.9932;0.0000;0.0000;0.0000;-0.0934;-0.1044;-60.2710;35.1000 
829.259;0.0024;-0.0015;0.9932;0.0000;0.0000;0.0000;-0.0934;-0.1044;-60.2710;35.1000 
829.259;0.0024;-0.0015;0.9932;0.0000;0.0000;0.0000;-0.0934;-0.1044;-60.2710;35.0800 
829.259;0.0024;-0.0015;0.9927;0.0000;0.0000;0.0000;-0.0934;-0.1044;-60.2710;35.0800 
829.269;0.0024;-0.0015;0.9927;0.0000;0.0000;0.0000;-0.0934;-0.1044;-60.2710;35.1100 
829.269;0.0024;-0.0015;0.9927;0.0000;0.0000;0.0000;-0.0934;-0.1044;-60.2710;35.1100 
829.269;0.0024;-0.0015;0.9927;0.0000;0.0000;0.0000;-0.0934;-0.1044;-60.2710;35.0900 
829.269;0.0024;-0.0015;0.9927;0.0000;0.0000;0.0000;-0.0934;-0.1044;-60.2710;35.0900 
829.289;0.0024;-0.0015;0.9927;0.0000;0.0000;0.0000;-0.0934;-0.1044;-60.2710;35.0400 
829.309;0.0024;-0.0015;0.9927;0.0000;0.0000;0.0000;-0.0934;-0.1044;-60.2765;35.0400 
829.309;0.0024;-0.0015;0.9927;0.0000;0.0000;0.0000;-0.0934;-0.1044;-60.2765;35.0400 
829.309;0.0024;-0.0010;0.9932;0.0000;0.0000;0.0000;-0.0934;-0.1044;-60.2765;35.0400 
829.309;0.0024;-0.0010;0.9932;0.0000;0.0000;0.0000;-0.0934;-0.1044;-60.2765;35.0400 
829.399;0.0024;-0.0010;0.9932;0.0000;0.0000;0.0000;-0.0934;-0.1044;-60.2765;35.0400 
829.399;0.0024;-0.0010;0.9932;0.0000;0.0000;0.0000;-0.0934;-0.1044;-60.2765;35.0500 
829.399;0.0024;-0.0010;0.9932;0.0000;0.0000;0.0000;-0.0934;-0.1044;-60.2820;35.0500 
829.399;0.0024;-0.0010;0.9932;0.0000;0.0000;0.0000;-0.0934;-0.1044;-60.2820;35.0500 
829.419;0.0024;-0.0010;0.9932;0.0000;0.0000;0.0000;-0.0934;-0.1044;-60.2820;35.0100 
829.419;0.0024;-0.0010;0.9932;0.0000;0.0000;0.0000;-0.0934;-0.1044;-60.2875;35.0100 
829.419;0.0034;-0.0024;0.9937;0.0000;0.0000;0.0000;-0.0934;-0.1044;-60.2875;35.0800 
829.419;0.0034;-0.0024;0.9937;0.0000;0.0000;0.0000;-0.0934;-0.1099;-60.2875;35.0800 
829.419;0.0034;-0.0024;0.9937;0.0000;0.0000;0.0000;-0.0934;-0.1099;-60.2875;35.0500 
829.419;0.0034;-0.0024;0.9937;0.0000;0.0000;0.0000;-0.0934;-0.1099;-60.2930;35.0500 
829.419;0.0034;-0.0024;0.9937;0.0000;0.0000;0.0000;-0.0934;-0.1099;-60.2930;35.0700 
829.419;0.0034;-0.0024;0.9937;0.0000;0.0000;0.0000;-0.0934;-0.1099;-60.2930;35.0700 
829.419;0.0034;-0.0024;0.9937;0.0000;0.0000;0.0000;-0.0934;-0.1099;-60.2985;35.0200 
829.419;0.0034;-0.0024;0.9937;0.0000;0.0000;0.0000;-0.0934;-0.1099;-60.2985;35.0200 
829.419;0.0024;-0.0015;0.9932;0.0000;0.0000;0.0000;-0.0934;-0.1099;-60.3040;35.0800 
829.419;0.0024;-0.0015;0.9932;0.0000;0.0000;0.0000;-0.0934;-0.1099;-60.3040;35.0800 
829.419;0.0024;-0.0015;0.9932;0.0000;0.0000;0.0000;-0.0934;-0.1099;-60.3094;35.1000 
829.419;0.0024;-0.0015;0.9932;0.0000;0.0000;0.0000;-0.0934;-0.1099;-60.3094;35.1000 
829.419;0.0024;-0.0015;0.9932;0.0000;0.0000;0.0000;-0.0934;-0.1099;-60.3094;35.0600 
829.419;0.0024;-0.0015;0.9932;0.0000;0.0000;0.0000;-0.0934;-0.1099;-60.3149;35.0600 
829.419;0.0024;-0.0015;0.9932;0.0000;0.0000;0.0000;-0.0934;-0.1099;-60.3149;35.0600 
829.419;0.0024;-0.0015;0.9932;0.0000;0.0000;0.0000;-0.0934;-0.1099;-60.3149;35.0500 
829.419;0.0034;-0.0010;0.9937;0.0000;0.0000;0.0000;-0.0934;-0.1099;-60.3204;35.0500 
829.419;0.0034;-0.0010;0.9937;0.0000;0.0000;0.0000;-0.0934;-0.1099;-60.3204;35.0400 
829.429;0.0034;-0.0010;0.9937;0.0000;0.0000;0.0000;-0.0934;-0.1099;-60.3204;35.0400 
829.429;0.0034;-0.0010;0.9937;0.0000;0.0000;0.0000;-0.0934;-0.1099;-60.3259;35.0400 
829.439;0.0034;-0.0010;0.9937;0.0000;0.0000;0.0000;-0.0934;-0.1099;-60.3259;35.0400 
829.459;0.0034;-0.0010;0.9937;0.0000;0.0000;0.0000;-0.0934;-0.1099;-60.3259;35.0700 
829.459;0.0034;-0.0010;0.9937;0.0000;0.0000;0.0000;-0.0934;-0.1099;-60.3259;35.0700 
829.459;0.0034;-0.0010;0.9937;0.0000;0.0000;0.0000;-0.0934;-0.1099;-60.3259;35.1400 
829.459;0.0029;-0.0020;0.9932;0.0000;0.0000;0.0000;-0.0934;-0.1099;-60.3259;35.1400 
829.479;0.0029;-0.0020;0.9932;0.0000;0.0000;0.0000;-0.0934;-0.1099;-60.3259;35.1300 
829.479;0.0029;-0.0020;0.9932;0.0000;0.0000;0.0000;-0.0934;-0.1099;-60.3259;35.1300 
829.489;0.0029;-0.0020;0.9932;0.0000;0.0000;0.0000;-0.0934;-0.1099;-60.3259;35.0700 
829.489;0.0029;-0.0020;0.9932;0.0000;0.0000;0.0000;-0.0934;-0.1099;-60.3259;35.0700 
829.489;0.0029;-0.0020;0.9932;0.0000;0.0000;0.0000;-0.0934;-0.1099;-60.3259;35.0500 
829.489;0.0029;-0.0020;0.9932;0.0000;0.0000;0.0000;-0.0934;-0.1099;-60.3259;35.0500 
829.499;0.0029;-0.0020;0.9932;0.0000;0.0000;0.0000;-0.0934;-0.1154;-60.3259;35.0500 
829.499;0.0029;-0.0010;0.9932;0.0000;0.0000;0.0000;-0.0934;-0.1154;-60.3259;35.0300 
829.599;0.0029;-0.0010;0.9932;0.0000;0.0000;0.0000;-0.0934;-0.1154;-60.3259;35.0300 
829.599;0.0029;-0.0010;0.9932;0.0000;0.0000;0.0000;-0.0934;-0.1154;-60.3259;35.0600 
829.599;0.0029;-0.0010;0.9932;0.0000;0.0000;0.0000;-0.0934;-0.1154;-60.3259;35.0600 
829.599;0.0029;-0.0010;0.9932;0.0000;0.0000;0.0000;-0.0934;-0.1154;-60.3314;35.0300 
829.599;0.0029;-0.0010;0.9932;0.0000;0.0000;0.0000;-0.0934;-0.1154;-60.3314;35.0300 
829.599;0.0029;-0.0010;0.9932;0.0000;0.0000;0.0000;-0.0934;-0.1154;-60.3314;35.0900 
829.609;0.0029;-0.0010;0.9932;0.0000;0.0000;0.0000;-0.0934;-0.1154;-60.3314;35.0900 
829.609;0.0024;-0.0010;0.9927;0.0000;0.0000;0.0000;-0.0934;-0.1154;-60.3314;35.0900 
829.609;0.0024;-0.0010;0.9927;0.0000;0.0000;0.0000;-0.0934;-0.1154;-60.3369;35.0900 
829.609;0.0024;-0.0010;0.9927;0.0000;0.0000;0.0000;-0.0934;-0.1154;-60.3369;35.1000 
829.609;0.0024;-0.0010;0.9927;0.0000;0.0000;0.0000;-0.0934;-0.1154;-60.3369;35.1000 
829.609;0.0024;-0.0010;0.9927;0.0000;0.0000;0.0000;-0.0934;-0.1154;-60.3369;35.0500 
829.609;0.0024;-0.0010;0.9927;0.0000;0.0000;0.0000;-0.0934;-0.1154;-60.3369;35.0500 
829.609;0.0024;-0.0010;0.9927;0.0000;0.0000;0.0000;-0.0934;-0.1154;-60.3369;35.0500 
829.609;0.0024;-0.0010;0.9927;0.0000;0.0000;0.0000;-0.0879;-0.1154;-60.3369;35.0600 
829.609;0.0024;-0.0015;0.9932;0.0000;0.0000;0.0000;-0.0879;-0.1154;-60.3369;35.0600 
829.609;0.0024;-0.0015;0.9932;0.0000;0.0000;0.0000;-0.0879;-0.1154;-60.3314;35.1300 
829.609;0.0024;-0.0015;0.9932;0.0000;0.0000;0.0000;-0.0879;-0.1154;-60.3314;35.1300 
829.609;0.0024;-0.0015;0.9932;0.0000;0.0000;0.0000;-0.0879;-0.1154;-60.3314;35.0700 
829.609;0.0024;-0.0015;0.9932;0.0000;0.0000;0.0000;-0.0879;-0.1154;-60.3314;35.0700 
829.619;0.0024;-0.0015;0.9932;0.0000;0.0000;0.0000;-0.0879;-0.1154;-60.3259;35.0800 
829.619;0.0024;-0.0015;0.9932;0.0000;0.0000;0.0000;-0.0879;-0.1154;-60.3259;35.0800 
829.619;0.0024;-0.0015;0.9932;0.0000;0.0000;0.0000;-0.0879;-0.1154;-60.3259;35.0000 
829.629;0.0015;-0.0015;0.9927;0.0000;0.0000;0.0000;-0.0879;-0.1154;-60.3259;35.0000 
829.629;0.0015;-0.0015;0.9927;0.0000;0.0000;0.0000;-0.0879;-0.1154;-60.3259;35.0800 
829.629;0.0015;-0.0015;0.9927;0.0000;0.0000;0.0000;-0.0879;-0.1154;-60.3204;35.0800 
829.629;0.0015;-0.0015;0.9927;0.0000;0.0000;0.0000;-0.0879;-0.1154;-60.3204;35.0900 
829.639;0.0015;-0.0015;0.9927;0.0000;0.0000;0.0000;-0.0879;-0.1154;-60.3204;35.0900 
829.639;0.0015;-0.0015;0.9927;0.0000;0.0000;0.0000;-0.0879;-0.1154;-60.3204;35.0300 
829.649;0.0015;-0.0015;0.9927;0.0000;0.0000;0.0000;-0.0879;-0.1154;-60.3204;35.0300 
829.649;0.0015;-0.0015;0.9927;0.0000;0.0000;0.0000;-0.0879;-0.1154;-60.3204;35.0300 
829.659;0.0015;-0.0005;0.9932;0.0000;0.0000;0.0000;-0.0879;-0.1154;-60.3204;35.0800 
829.659;0.0015;-0.0005;0.9932;0.0000;0.0000;0.0000;-0.0879;-0.1154;-60.3204;35.0800 
829.679;0.0015;-0.0005;0.9932;0.0000;0.0000;0.0000;-0.0879;-0.1154;-60.3204;35.1700 
829.679;0.0015;-0.0005;0.9932;0.0000;0.0000;0.0000;-0.0879;-0.1154;-60.3259;35.1700 
829.679;0.0015;-0.0005;0.9932;0.0000;0.0000;0.0000;-0.0879;-0.1154;-60.3259;35.0700 
829.679;0.0015;-0.0005;0.9932;0.0000;0.0000;0.0000;-0.0879;-0.1154;-60.3259;35.0700 
829.689;0.0015;-0.0005;0.9932;0.0000;0.0000;0.0000;-0.0879;-0.1154;-60.3259;35.0500 
829.689;0.0015;-0.0005;0.9932;0.0000;0.0000;0.0000;-0.0879;-0.1154;-60.3259;35.0500 
829.699;0.0015;-0.0015;0.9927;0.0000;0.0000;0.0000;-0.0879;-0.1154;-60.3259;35.0600 
829.699;0.0015;-0.0015;0.9927;0.0000;0.0000;0.0000;-0.0879;-0.1154;-60.3314;35.0600 
829.799;0.0015;-0.0015;0.9927;0.0000;0.0000;0.0000;-0.0879;-0.1154;-60.3314;35.0300 
829.799;0.0015;-0.0015;0.9927;0.0000;0.0000;0.0000;-0.0879;-0.1154;-60.3314;35.0300 
829.819;0.0015;-0.0015;0.9927;0.0000;0.0000;0.0000;-0.0879;-0.1154;-60.3314;35.1300 
829.819;0.0015;-0.0015;0.9927;0.0000;0.0000;0.0000;-0.0879;-0.1154;-60.3314;35.1300 
829.819;0.0015;-0.0015;0.9927;0.0000;0.0000;0.0000;-0.0879;-0.1099;-60.3314;35.0600 
829.819;0.0015;-0.0015;0.9927;0.0000;0.0000;0.0000;-0.0879;-0.1099;-60.3314;35.0600 
829.819;0.0015;-0.0015;0.9927;0.0000;0.0000;0.0000;-0.0879;-0.1099;-60.3259;35.0600 
829.819;0.0015;-0.0015;0.9927;0.0000;0.0000;0.0000;-0.0879;-0.1099;-60.3259;35.1000 
829.819;0.0015;-0.0015;0.9927;0.0000;0.0000;0.0000;-0.0879;-0.1099;-60.3259;35.1000 
829.819;0.0015;-0.0015;0.9927;0.0000;0.0000;0.0000;-0.0879;-0.1099;-60.3259;35.0200 
829.819;0.0015;-0.0015;0.9927;0.0000;0.0000;0.0000;-0.0879;-0.1099;-60.3259;35.0200 
829.819;0.0015;-0.0015;0.9927;0.0000;0.0000;0.0000;-0.0879;-0.1099;-60.3259;35.0900 
829.819;0.0015;-0.0015;0.9927;0.0000;0.0000;0.0000;-0.0879;-0.1099;-60.3259;35.0900 
829.819;0.0015;-0.0015;0.9927;0.0000;0.0000;0.0000;-0.0879;-0.1099;-60.3204;35.0500 
829.819;0.0010;-0.0010;0.9927;0.0000;0.0000;0.0000;-0.0879;-0.1099;-60.3204;35.0500 
829.819;0.0010;-0.0010;0.9927;0.0000;0.0000;0.0000;-0.0879;-0.1099;-60.3204;35.1100 
829.819;0.0010;-0.0010;0.9927;0.0000;0.0000;0.0000;-0.0879;-0.1099;-60.3149;35.1100 
829.819;0.0010;-0.0010;0.9927;0.0000;0.0000;0.0000;-0.0879;-0.1099;-60.3149;35.0800 
829.819;0.0010;-0.0010;0.9927;0.0000;0.0000;0.0000;-0.0879;-0.1099;-60.3149;35.0800 
829.819;0.0010;-0.0010;0.9927;0.0000;0.0000;0.0000;-0.0879;-0.1099;-60.3149;35.0600 
829.819;0.0010;-0.0010;0.9927;0.0000;0.0000;0.0000;-0.0879;-0.1099;-60.3094;35.0600 
829.819;0.0010;-0.0010;0.9927;0.0000;0.0000;0.0000;-0.0879;-0.1099;-60.3094;35.0500 
829.819;0.0015;-0.0020;0.9927;0.0000;0.0000;0.0000;-0.0879;-0.1099;-60.3094;35.0500 
829.839;0.0015;-0.0020;0.9927;0.0000;0.0000;0.0000;-0.0879;-0.1099;-60.3094;35.0500 
829.839;0.0015;-0.0020;0.9927;0.0000;0.0000;0.0000;-0.0879;-0.1099;-60.3040;35.0700 
829.849;0.0015;-0.0020;0.9927;0.0000;0.0000;0.0000;-0.0879;-0.1099;-60.3040;35.0700 
829.849;0.0015;-0.0020;0.9927;0.0000;0.0000;0.0000;-0.0879;-0.1099;-60.2985;35.0700 
829.859;0.0015;-0.0020;0.9927;0.0000;0.0000;0.0000;-0.0879;-0.1099;-60.2985;35.0700 
829.859;0.0015;-0.0020;0.9927;0.0000;0.0000;0.0000;-0.0879;-0.1099;-60.2985;35.0800 
829.859;0.0015;-0.0020;0.9927;0.0000;0.0000;0.0000;-0.0879;-0.1099;-60.2985;35.0800 
829.859;0.0015;-0.0020;0.9922;0.0000;0.0000;0.0000;-0.0879;-0.1099;-60.2985;35.0900 
829.868;0.0015;-0.0020;0.9922;0.0000;0.0000;0.0000;-0.0879;-0.1099;-60.2985;35.0900 
829.868;0.0015;-0.0020;0.9922;0.0000;0.0000;0.0000;-0.0879;-0.1099;-60.2985;35.0300 
829.878;0.0015;-0.0020;0.9922;0.0000;0.0000;0.0000;-0.0879;-0.1099;-60.2985;35.0300 
829.878;0.0015;-0.0020;0.9922;0.0000;0.0000;0.0000;-0.0879;-0.1099;-60.2985;35.0900 
829.878;0.0015;-0.0020;0.9922;0.0000;0.0000;0.0000;-0.0879;-0.1099;-60.2985;35.0900 
829.878;0.0015;-0.0020;0.9922;0.0000;0.0000;0.0000;-0.0879;-0.1099;-60.2985;35.0800 
829.889;0.0015;-0.0020;0.9922;0.0000;0.0000;0.0000;-0.0879;-0.1099;-60.2985;35.0800 
829.889;0.0024;-0.0015;0.9932;0.0000;0.0000;0.0000;-0.0879;-0.1099;-60.2985;35.0800 
829.899;0.0024;-0.0015;0.9932;0.0000;0.0000;0.0000;-0.0879;-0.1099;-60.2985;35.0700 
829.899;0.0024;-0.0015;0.9932;0.0000;0.0000;0.0000;-0.0879;-0.1099;-60.2985;35.0700 
830.008;0.0024;-0.0015;0.9932;0.0000;0.0000;0.0000;-0.0879;-0.1099;-60.3040;35.0000 
830.008;0.0024;-0.0015;0.9932;0.0000;0.0000;0.0000;-0.0879;-0.1099;-60.3040;35.0000 
830.018;0.0024;-0.0015;0.9932;0.0000;0.0000;0.0000;-0.0879;-0.1099;-60.3040;35.0400 
830.018;0.0024;-0.0015;0.9932;0.0000;0.0000;0.0000;-0.0879;-0.1099;-60.3040;35.0400 
830.018;0.0024;-0.0015;0.9932;0.0000;0.0000;0.0000;-0.0879;-0.1099;-60.3040;35.0800 
830.018;0.0020;-0.0024;0.9927;0.0000;0.0000;0.0000;-0.0879;-0.1099;-60.3040;35.0800 
830.018;0.0020;-0.0024;0.9927;0.0000;0.0000;0.0000;-0.0879;-0.1099;-60.3040;35.1200 
830.018;0.0020;-0.0024;0.9927;0.0000;0.0000;0.0000;-0.0879;-0.1099;-60.3094;35.1200 
830.018;0.0020;-0.0024;0.9927;0.0000;0.0000;0.0000;-0.0879;-0.1099;-60.3094;35.0800 
830.018;0.0020;-0.0024;0.9927;0.0000;0.0000;0.0000;-0.0879;-0.1099;-60.3094;35.0800 
830.018;0.0020;-0.0024;0.9927;0.0000;0.0000;0.0000;-0.0879;-0.1099;-60.3149;35.0200 
830.018;0.0020;-0.0024;0.9927;0.0000;0.0000;0.0000;-0.0879;-0.1099;-60.3149;35.0200 
830.018;0.0020;-0.0024;0.9927;0.0000;0.0000;0.0000;-0.0879;-0.1099;-60.3149;35.0100 
830.018;0.0029;-0.0029;0.9937;0.0000;0.0000;0.0000;-0.0879;-0.1099;-60.3204;35.0100 
830.018;0.0029;-0.0029;0.9937;0.0000;0.0000;0.0000;-0.0879;-0.1099;-60.3204;35.0100 
830.018;0.0029;-0.0029;0.9937;0.0000;0.0000;0.0000;-0.0879;-0.1099;-60.3259;35.0700 
830.018;0.0029;-0.0029;0.9937;0.0000;0.0000;0.0000;-0.0879;-0.1099;-60.3259;35.0700 
830.018;0.0029;-0.0029;0.9937;0.0000;0.0000;0.0000;-0.0879;-0.1099;-60.3259;35.0000 
830.018;0.0029;-0.0029;0.9937;0.0000;0.0000;0.0000;-0.0879;-0.1099;-60.3314;35.0000 
830.018;0.0029;-0.0029;0.9937;0.0000;0.0000;0.0000;-0.0879;-0.1099;-60.3314;35.1400 
830.018;-0.2783;-0.0151;1.0449;0.0000;0.0000;0.0000;-0.0934;-0.0659;-60.3314;35.1400 
830.018;-0.2783;-0.0151;1.0449;0.0000;0.0000;0.0000;-0.0934;-0.0220;-60.3259;35.0900 
830.018;-0.2783;-0.0151;1.0449;0.0000;0.0000;0.0000;-0.0989;0.0165;-60.3259;35.0900 
830.038;-0.2783;-0.0151;1.0449;0.0000;0.0000;0.0000;-0.0989;0.0604;-60.3259;35.1100 
830.038;-0.2783;-0.0151;1.0449;0.0000;0.0000;0.0000;-0.0989;0.1099;-60.3259;35.1100 
830.038;-0.2783;-0.0151;1.0449;0.0000;0.0000;0.0000;-0.1044;0.1538;-60.3204;35.1100 
830.038;-0.2783;-0.0151;1.0449;0.0000;0.0000;0.0000;-0.1044;0.1978;-60.3204;35.1100 
830.048;-0.2783;-0.0151;1.0449;0.0000;0.0000;0.0000;-0.1099;0.2417;-60.3204;35.1100 
830.048;-0.6709;-0.0166;1.0146;0.0000;1.1597;-0.8545;-0.1099;0.3461;-60.3149;35.1100 
830.058;-0.6709;-0.0166;1.0146;0.0000;1.1597;-0.8545;-0.1154;0.4449;-60.3094;35.0400 
830.058;-0.6709;-0.0166;1.0146;0.0000;1.1597;-0.8545;-0.1208;0.5493;-60.3040;35.0400 
830.078;-0.6709;-0.0166;1.0146;0.0000;1.1597;-0.8545;-0.1263;0.6537;-60.3040;35.0400 
830.078;-0.6709;-0.0166;1.0146;0.0000;1.1597;-0.8545;-0.1318;0.7581;-60.2985;35.0400 
830.088;-0.6709;-0.0166;1.0146;0.0000;1.1597;-0.8545;-0.1373;0.8569;-60.2985;35.0400 
830.088;-0.6709;-0.0166;1.0146;0.0000;1.1597;-0.8545;-0.1373;0.9613;-60.2930;35.1100 
830.088;-0.6709;-0.0166;1.0146;0.0000;1.1597;-0.8545;-0.1428;1.0657;-60.2930;35.1100 
830.098;-1.3125;-0.0391;0.9878;-0.2441;3.3569;-2.9297;-0.1648;1.2305;-60.2820;35.0300 
830.098;-1.3125;-0.0391;0.9878;-0.2441;3.3569;-2.9297;-0.1813;1.3953;-60.2655;35.0300 
830.118;-1.3125;-0.0391;0.9878;-0.2441;3.3569;-2.9297;-0.2032;1.5601;-60.2545;35.0900 
830.118;-1.3125;-0.0391;0.9878;-0.2441;3.3569;-2.9297;-0.2197;1.7249;-60.2435;35.0900 
830.118;-1.3125;-0.0391;0.9878;-0.2441;3.3569;-2.9297;-0.2362;1.8896;-60.2325;35.0600 
830.118;-1.3125;-0.0391;0.9878;-0.2441;3.3569;-2.9297;-0.2582;2.0544;-60.2161;35.0600 
830.238;-1.3125;-0.0391;0.9878;-0.2441;3.3569;-2.9297;-0.2747;2.2192;-60.2051;35.0500 
830.238;-1.3125;-0.0391;0.9878;-0.2441;3.3569;-2.9297;-0.2966;2.3840;-60.1941;35.0500 
830.248;-1.9277;-0.1152;0.9263;-1.1597;5.4321;-6.2256;-0.3406;2.5818;-60.1776;35.0700 
830.248;-1.9277;-0.1152;0.9263;-1.1597;5.4321;-6.2256;-0.3900;2.7795;-60.1556;35.0700 
830.248;-1.9277;-0.1152;0.9263;-1.1597;5.4321;-6.2256;-0.4395;2.9773;-60.1337;35.1100 
830.248;-1.9277;-0.1152;0.9263;-1.1597;5.4321;-6.2256;-0.4889;3.1750;-60.1172;35.1100 
830.248;-1.9277;-0.1152;0.9263;-1.1597;5.4321;-6.2256;-0.5383;3.3728;-60.1007;35.1100 
830.248;-1.9277;-0.1152;0.9263;-1.1597;5.4321;-6.2256;-0.5878;3.5706;-60.0787;35.0900 
830.248;-1.9277;-0.1152;0.9263;-1.1597;5.4321;-6.2256;-0.6317;3.7628;-60.0623;35.0900 
830.248;-1.9277;-0.1152;0.9263;-1.1597;5.4321;-6.2256;-0.6812;3.9606;-60.0458;35.0800 
830.248;-2.3022;-0.1987;0.8853;-2.5635;5.7373;-10.3149;-0.7526;4.1638;-60.0348;35.0800 
830.248;-2.3022;-0.1987;0.8853;-2.5635;5.7373;-10.3149;-0.8295;4.3671;-60.0238;35.0900 
830.248;-2.3022;-0.1987;0.8853;-2.5635;5.7373;-10.3149;-0.9009;4.5703;-60.0128;35.0900 
830.248;-2.3022;-0.1987;0.8853;-2.5635;5.7373;-10.3149;-0.9778;4.7736;-60.0018;35.0700 
830.248;-2.3022;-0.1987;0.8853;-2.5635;5.7373;-10.3149;-1.0492;4.9713;-59.9908;35.0700 
830.248;-2.3022;-0.1987;0.8853;-2.5635;5.7373;-10.3149;-1.1206;5.1746;-59.9854;35.0400 
830.248;-2.3022;-0.1987;0.8853;-2.5635;5.7373;-10.3149;-1.1975;5.3778;-59.9744;35.0400 
830.248;-2.3022;-0.1987;0.8853;-2.5635;5.7373;-10.3149;-1.2689;5.5756;-59.9634;35.0800 
830.248;-2.2734;-0.3037;0.8115;-3.2349;3.4790;-13.7939;-1.3623;5.7623;-59.9689;35.0800 
830.248;-2.2734;-0.3037;0.8115;-3.2349;3.4790;-13.7939;-1.4557;5.9491;-59.9744;35.0900 
830.248;-2.2734;-0.3037;0.8115;-3.2349;3.4790;-13.7939;-1.5491;6.1359;-59.9744;35.0900 
830.248;-2.2734;-0.3037;0.8115;-3.2349;3.4790;-13.7939;-1.6370;6.3171;-59.9799;35.0900 
830.248;-2.2734;-0.3037;0.8115;-3.2349;3.4790;-13.7939;-1.7303;6.5039;-59.9854;35.0500 
830.248;-2.2734;-0.3037;0.8115;-3.2349;3.4790;-13.7939;-1.8237;6.6907;-59.9908;35.0500 
830.248;-2.2734;-0.3037;0.8115;-3.2349;3.4790;-13.7939;-1.9171;6.8719;-59.9963;35.0200 
830.258;-2.2734;-0.3037;0.8115;-3.2349;3.4790;-13.7939;-2.0050;7.0532;-60.0018;35.0200 
830.258;-1.8794;-0.3389;0.7314;-1.8921;-2.3804;-15.5640;-2.0984;7.2015;-60.0183;35.1100 
830.258;-1.8794;-0.3389;0.7314;-1.8921;-2.3804;-15.5640;-2.1863;7.3499;-60.0348;35.1100 
830.268;-1.8794;-0.3389;0.7314;-1.8921;-2.3804;-15.5640;-2.2797;7.4927;-60.0513;35.1000 
830.288;-1.8794;-0.3389;0.7314;-1.8921;-2.3804;-15.5640;-2.3676;7.6410;-60.0732;35.1000 
830.288;-1.8794;-0.3389;0.7314;-1.8921;-2.3804;-15.5640;-2.4554;7.7893;-60.0897;35.1000 
830.288;-1.8794;-0.3389;0.7314;-1.8921;-2.3804;-15.5640;-2.5433;7.9321;-60.1117;35.1000 
830.288;-1.8794;-0.3389;0.7314;-1.8921;-2.3804;-15.5640;-2.6312;8.0750;-60.1337;35.0600 
830.288;-1.8794;-0.3389;0.7314;-1.8921;-2.3804;-15.5640;-2.7246;8.2233;-60.1501;35.0600 
830.288;-1.2412;-0.3042;0.5620;2.7466;-11.3525;-16.0522;-2.7905;8.3112;-60.1776;35.0900 
830.318;-1.2412;-0.3042;0.5620;2.7466;-11.3525;-16.0522;-2.8619;8.3990;-60.2051;35.0900 
830.318;-1.2412;-0.3042;0.5620;2.7466;-11.3525;-16.0522;-2.9279;8.4869;-60.2325;35.0100 
830.328;-1.2412;-0.3042;0.5620;2.7466;-11.3525;-16.0522;-2.9993;8.5748;-60.2545;35.0100 
830.328;-1.2412;-0.3042;0.5620;2.7466;-11.3525;-16.0522;-3.0707;8.6627;-60.2820;35.0100 
830.338;-1.2412;-0.3042;0.5620;2.7466;-11.3525;-16.0522;-3.1366;8.7506;-60.3094;35.0500 
830.338;-1.2412;-0.3042;0.5620;2.7466;-11.3525;-16.0522;-3.2025;8.8385;-60.3424;35.0500 
830.338;-1.2412;-0.3042;0.5620;2.7466;-11.3525;-16.0522;-3.2739;8.9264;-60.3699;35.0500 
830.338;-0.5537;-0.2031;0.3462;10.2539;-21.5454;-16.1743;-3.3014;8.9429;-60.4138;35.0500 
830.338;-0.5537;-0.2031;0.3462;10.2539;-21.5454;-16.1743;-3.3344;8.9594;-60.4578;35.0800 
830.338;-0.5537;-0.2031;0.3462;10.2539;-21.5454;-16.1743;-3.3618;8.9758;-60.5017;35.0800 
830.348;-0.5537;-0.2031;0.3462;10.2539;-21.5454;-16.1743;-3.3948;8.9923;-60.5457;35.1100 
830.348;-0.5537;-0.2031;0.3462;10.2539;-21.5454;-16.1743;-3.4222;9.0088;-60.5841;35.1100 
830.438;-0.5537;-0.2031;0.3462;10.2539;-21.5454;-16.1743;-3.4552;9.0253;-60.6281;35.0800 
830.438;-0.5537;-0.2031;0.3462;10.2539;-21.5454;-16.1743;-3.4882;9.0417;-60.6720;35.0800 
830.458;-0.5537;-0.2031;0.3462;10.2539;-21.5454;-16.1743;-3.5156;9.0582;-60.7104;35.1000 
830.458;-0.0112;-0.0913;0.1626;18.7988;-31.7993;-17.4561;-3.5101;8.8824;-60.8148;35.1000 
830.458;-0.0112;-0.0913;0.1626;18.7988;-31.7993;-17.4561;-3.5101;8.7067;-60.9247;35.0900 
830.458;-0.0112;-0.0913;0.1626;18.7988;-31.7993;-17.4561;-3.5046;8.5309;-61.0291;35.0900 
830.458;-0.0112;-0.0913;0.1626;18.7988;-31.7993;-17.4561;-3.4991;8.3606;-61.1334;35.1000 
830.458;-0.0112;-0.0913;0.1626;18.7988;-31.7993;-17.4561;-3.4937;8.1903;-61.2378;35.1000 
830.458;-0.0112;-0.0913;0.1626;18.7988;-31.7993;-17.4561;-3.4937;8.0145;-61.3422;35.1000 
830.458;-0.0112;-0.0913;0.1626;18.7988;-31.7993;-17.4561;-3.4882;7.8442;-61.4520;35.0400 
830.458;-0.0112;-0.0913;0.1626;18.7988;-31.7993;-17.4561;-3.4827;7.6740;-61.5564;35.0400 
830.458;0.3193;0.0015;0.0439;26.4893;-40.4053;-20.9961;-3.3289;7.2235;-61.6168;35.0500 
830.458;0.3193;0.0015;0.0439;26.4893;-40.4053;-20.9961;-3.1805;6.7786;-61.6772;35.0500 
830.458;0.3193;0.0015;0.0439;26.4893;-40.4053;-20.9961;-3.0267;6.3336;-61.7432;35.0600 
830.468;0.3193;0.0015;0.0439;26.4893;-40.4053;-20.9961;-2.8784;5.8887;-61.8146;35.0600 
830.468;0.3193;0.0015;0.0439;26.4893;-40.4053;-20.9961;-2.7301;5.4437;-61.8805;35.0500 
830.468;0.3193;0.0015;0.0439;26.4893;-40.4053;-20.9961;-2.5873;4.9988;-61.9519;35.0500 
830.478;0.3193;0.0015;0.0439;26.4893;-40.4053;-20.9961;-2.4390;4.5538;-62.0288;35.0600 
830.478;0.3193;0.0015;0.0439;26.4893;-40.4053;-20.9961;-2.2961;4.1144;-62.1057;35.0600 
830.488;0.4590;0.0649;-0.0054;32.1045;-45.5933;-26.8555;-2.0215;3.6584;-62.1387;35.0400 
830.488;0.4590;0.0649;-0.0054;32.1045;-45.5933;-26.8555;-1.7468;3.2025;-62.1771;35.0400 
830.498;0.4590;0.0649;-0.0054;32.1045;-45.5933;-26.8555;-1.4777;2.7521;-62.2211;35.0300 
830.498;0.4590;0.0649;-0.0054;32.1045;-45.5933;-26.8555;-1.2140;2.2961;-62.2705;35.0300 
830.528;0.4590;0.0649;-0.0054;32.1045;-45.5933;-26.8555;-0.9448;1.8402;-62.3254;35.0600 
830.528;0.4590;0.0649;-0.0054;32.1045;-45.5933;-26.8555;-0.6757;1.3898;-62.3749;35.0600 
830.538;0.4590;0.0649;-0.0054;32.1045;-45.5933;-26.8555;-0.4120;0.9393;-62.4298;35.0600 
830.538;0.4590;0.0649;-0.0054;32.1045;-45.5933;-26.8555;-0.1483;0.4889;-62.4902;35.1000 
830.638;0.4634;0.1001;-0.0010;35.9497;-47.1802;-34.7900;0.1483;0.0385;-62.5946;35.1000 
830.638;0.4634;0.1001;-0.0010;35.9497;-47.1802;-34.7900;0.4449;-0.4065;-62.6990;35.0100 
830.658;0.4634;0.1001;-0.0010;35.9497;-47.1802;-34.7900;0.7416;-0.8514;-62.8033;35.0100 
830.658;0.4634;0.1001;-0.0010;35.9497;-47.1802;-34.7900;1.0382;-1.2964;-62.9132;35.0900 
830.668;0.4634;0.1001;-0.0010;35.9497;-47.1802;-34.7900;1.3348;-1.7413;-63.0286;35.0900 
830.668;0.4634;0.1001;-0.0010;35.9497;-47.1802;-34.7900;1.6315;-2.1808;-63.1494;35.0600 
830.688;0.4634;0.1001;-0.0010;35.9497;-47.1802;-34.7900;1.9281;-2.6257;-63.2703;35.0600 
830.688;0.4634;0.1001;-0.0010;35.9497;-47.1802;-34.7900;2.2247;-3.0652;-63.3966;35.0100 
830.698;0.7607;0.4272;0.3779;38.4521;-44.7388;-45.1050;2.5159;-3.4332;-63.6328;35.0100 
830.698;0.7607;0.4272;0.3779;38.4521;-44.7388;-45.1050;2.8125;-3.8013;-63.8690;35.0000 
830.718;0.7607;0.4272;0.3779;38.4521;-44.7388;-45.1050;3.1091;-4.1693;-64.1107;35.0000 
830.718;0.7607;0.4272;0.3779;38.4521;-44.7388;-45.1050;3.4058;-4.5319;-64.3524;35.1000 
830.738;0.7607;0.4272;0.3779;38.4521;-44.7388;-45.1050;3.7024;-4.8889;-64.5941;35.1000 
830.738;0.7607;0.4272;0.3779;38.4521;-44.7388;-45.1050;4.0045;-5.2460;-64.8413;35.1000 
830.748;0.7607;0.4272;0.3779;38.4521;-44.7388;-45.1050;4.3066;-5.6030;-65.0830;35.1000 
830.838;0.7607;0.4272;0.3779;38.4521;-44.7388;-45.1050;4.6033;-5.9546;-65.3302;35.1000 
830.838;0.6558;0.6855;0.6436;36.1938;-31.0669;-59.6313;4.9219;-6.1853;-65.6653;35.1000 
830.838;0.6558;0.6855;0.6436;36.1938;-31.0669;-59.6313;5.2350;-6.4105;-66.0004;35.1000 
830.848;0.6558;0.6855;0.6436;36.1938;-31.0669;-59.6313;5.5481;-6.6357;-66.3354;35.0700 
830.848;0.6558;0.6855;0.6436;36.1938;-31.0669;-59.6313;5.8667;-6.8555;-66.6705;35.0700 
830.848;0.6558;0.6855;0.6436;36.1938;-31.0669;-59.6313;6.1853;-7.0752;-67.0056;35.1100 
830.848;0.6558;0.6855;0.6436;36.1938;-31.0669;-59.6313;6.5039;-7.2894;-67.3352;35.1100 
830.848;0.6558;0.6855;0.6436;36.1938;-31.0669;-59.6313;6.8225;-7.4982;-67.6703;35.0800 
830.848;0.6558;0.6855;0.6436;36.1938;-31.0669;-59.6313;7.1466;-7.7069;-67.9999;35.0800 
830.858;0.7300;0.9507;1.0547;21.0571;-1.4038;-76.4160;7.3938;-7.7344;-68.4064;35.1000 
830.948;0.7300;0.9507;1.0547;21.0571;-1.4038;-76.4160;7.6410;-7.7563;-68.8129;35.1000 
830.948;0.7300;0.9507;1.0547;21.0571;-1.4038;-76.4160;7.8882;-7.7783;-69.2139;35.0600 
831.038;0.7300;0.9507;1.0547;21.0571;-1.4038;-76.4160;8.1354;-7.8003;-69.6149;35.0600 
831.038;0.7300;0.9507;1.0547;21.0571;-1.4038;-76.4160;8.3826;-7.8168;-70.0104;35.1000 
831.058;0.7300;0.9507;1.0547;21.0571;-1.4038;-76.4160;8.6298;-7.8333;-70.4114;35.1000 
831.058;0.7300;0.9507;1.0547;21.0571;-1.4038;-76.4160;8.8770;-7.8442;-70.8069;35.1000 
831.058;0.7300;0.9507;1.0547;21.0571;-1.4038;-76.4160;9.1187;-7.8552;-71.1969;35.0600 
831.058;0.4668;1.0049;1.1797;-10.0098;35.5835;-88.4399;9.2175;-7.6465;-71.6309;35.0600 
831.058;0.4668;1.0049;1.1797;-10.0098;35.5835;-88.4399;9.3054;-7.4323;-72.0593;35.0400 
831.058;0.4668;1.0049;1.1797;-10.0098;35.5835;-88.4399;9.3988;-7.2180;-72.4878;35.0400 
831.058;0.4668;1.0049;1.1797;-10.0098;35.5835;-88.4399;9.4867;-7.0038;-72.9108;35.0900 
831.058;0.4668;1.0049;1.1797;-10.0098;35.5835;-88.4399;9.5746;-6.7896;-73.3337;35.0900 
831.058;0.4668;1.0049;1.1797;-10.0098;35.5835;-88.4399;9.6625;-6.5753;-73.7512;35.0400 
831.058;0.4668;1.0049;1.1797;-10.0098;35.5835;-88.4399;9.7449;-6.3611;-74.1687;35.0400 
831.058;0.4668;1.0049;1.1797;-10.0098;35.5835;-88.4399;9.8273;-6.1469;-74.5862;35.0700 
831.058;0.0732;0.6929;1.0757;-51.6357;66.3452;-89.7217;9.6790;-5.7404;-74.9872;35.0700 
831.068;0.0732;0.6929;1.0757;-51.6357;66.3452;-89.7217;9.5306;-5.3339;-75.3937;35.1000 
831.068;0.0732;0.6929;1.0757;-51.6357;66.3452;-89.7217;9.3768;-4.9329;-75.7947;35.1000 
831.078;0.0732;0.6929;1.0757;-51.6357;66.3452;-89.7217;9.2175;-4.5319;-76.1957;35.0800 
831.078;0.0732;0.6929;1.0757;-51.6357;66.3452;-89.7217;9.0637;-4.1309;-76.6022;35.0800 
831.078;0.0732;0.6929;1.0757;-51.6357;66.3452;-89.7217;8.9044;-3.7354;-77.0032;35.1200 
831.088;0.0732;0.6929;1.0757;-51.6357;66.3452;-89.7217;8.7396;-3.3398;-77.4042;35.1200 
831.088;0.0732;0.6929;1.0757;-51.6357;66.3452;-89.7217;8.5748;-2.9498;-77.8052;35.1200 
831.098;0.0137;0.0283;1.0415;-89.1724;72.2046;-76.7212;8.1244;-2.5323;-78.1293;35.0800 
831.098;0.0137;0.0283;1.0415;-89.1724;72.2046;-76.7212;7.6740;-2.1149;-78.4589;35.0800 
831.108;0.0137;0.0283;1.0415;-89.1724;72.2046;-76.7212;7.2235;-1.7029;-78.7885;35.0500 
831.108;0.0137;0.0283;1.0415;-89.1724;72.2046;-76.7212;6.7731;-1.2964;-79.1180;35.0500 
831.108;0.0137;0.0283;1.0415;-89.1724;72.2046;-76.7212;6.3171;-0.8954;-79.4531;35.0500 
831.108;0.0137;0.0283;1.0415;-89.1724;72.2046;-76.7212;5.8612;-0.4999;-79.7937;35.0500 
831.148;0.0137;0.0283;1.0415;-89.1724;72.2046;-76.7212;5.4053;-0.1044;-80.1398;35.0800 
831.148;0.0137;0.0283;1.0415;-89.1724;72.2046;-76.7212;4.9493;0.2856;-80.4858;35.0800 
831.148;0.1445;-0.2964;0.9126;-97.6563;44.4946;-53.7109;4.3945;0.4999;-80.7275;35.0600 
831.148;0.1445;-0.2964;0.9126;-97.6563;44.4946;-53.7109;3.8397;0.7086;-80.9747;35.0600 
831.248;0.1445;-0.2964;0.9126;-97.6563;44.4946;-53.7109;3.2849;0.9174;-81.2274;35.1100 
831.248;0.1445;-0.2964;0.9126;-97.6563;44.4946;-53.7109;2.7301;1.1261;-81.4801;35.1100 
831.248;0.1445;-0.2964;0.9126;-97.6563;44.4946;-53.7109;2.1753;1.3293;-81.7328;35.0600 
831.248;0.1445;-0.2964;0.9126;-97.6563;44.4946;-53.7109;1.6260;1.5271;-81.9965;35.0600 
831.268;0.1445;-0.2964;0.9126;-97.6563;44.4946;-53.7109;1.0712;1.7249;-82.2546;35.0700 
831.268;0.1445;-0.2964;0.9126;-97.6563;44.4946;-53.7109;0.5219;1.9226;-82.5238;35.0700 
831.268;0.3457;-0.5635;0.9487;-61.3403;-1.2207;-31.5552;0.1208;1.8567;-82.6886;35.0700 
831.268;0.3457;-0.5635;0.9487;-61.3403;-1.2207;-31.5552;-0.2747;1.7963;-82.8534;35.1400 
831.268;0.3457;-0.5635;0.9487;-61.3403;-1.2207;-31.5552;-0.6757;1.7303;-83.0182;35.1400 
831.268;0.3457;-0.5635;0.9487;-61.3403;-1.2207;-31.5552;-1.0712;1.6644;-83.1830;35.1000 
831.268;0.3457;-0.5635;0.9487;-61.3403;-1.2207;-31.5552;-1.4667;1.5985;-83.3478;35.1000 
831.268;0.3457;-0.5635;0.9487;-61.3403;-1.2207;-31.5552;-1.8622;1.5326;-83.5126;35.0600 
831.288;0.3457;-0.5635;0.9487;-61.3403;-1.2207;-31.5552;-2.2577;1.4612;-83.6774;35.0600 
831.288;0.3457;-0.5635;0.9487;-61.3403;-1.2207;-31.5552;-2.6532;1.3953;-83.8422;35.0600 
831.288;0.6914;-0.4102;0.9004;11.8408;-44.1895;-15.7471;-2.6532;1.0657;-83.9301;35.0600 
831.288;0.6914;-0.4102;0.9004;11.8408;-44.1895;-15.7471;-2.6587;0.7361;-84.0179;35.0000 
831.308;0.6914;-0.4102;0.9004;11.8408;-44.1895;-15.7471;-2.6642;0.4120;-84.1058;35.0000 
831.308;0.6914;-0.4102;0.9004;11.8408;-44.1895;-15.7471;-2.6642;0.0824;-84.1992;35.1100 
831.308;0.6914;-0.4102;0.9004;11.8408;-44.1895;-15.7471;-2.6697;-0.2362;-84.2871;35.1100 
831.318;0.6914;-0.4102;0.9004;11.8408;-44.1895;-15.7471;-2.6752;-0.5603;-84.3750;35.1300 
831.318;0.6914;-0.4102;0.9004;11.8408;-44.1895;-15.7471;-2.6752;-0.8844;-84.4629;35.1300 
831.318;0.6914;-0.4102;0.9004;11.8408;-44.1895;-15.7471;-2.6752;-1.2030;-84.5563;34.9800 
831.318;0.6953;-0.0894;0.6987;101.7456;-71.7773;-5.7983;-2.1863;-1.6919;-84.5892;34.9800 
831.328;0.6953;-0.0894;0.6987;101.7456;-71.7773;-5.7983;-1.7029;-2.1753;-84.6277;34.9800 
831.328;0.6953;-0.0894;0.6987;101.7456;-71.7773;-5.7983;-1.2140;-2.6532;-84.6716;35.0600 
831.328;0.6953;-0.0894;0.6987;101.7456;-71.7773;-5.7983;-0.7306;-3.1366;-84.7156;35.0600 
831.328;0.6953;-0.0894;0.6987;101.7456;-71.7773;-5.7983;-0.2472;-3.6145;-84.7705;35.0800 
831.348;0.6953;-0.0894;0.6987;101.7456;-71.7773;-5.7983;0.2307;-4.0924;-84.8254;35.0800 
831.348;0.6953;-0.0894;0.6987;101.7456;-71.7773;-5.7983;0.7141;-4.5648;-84.8859;35.0500 
831.348;0.6953;-0.0894;0.6987;101.7456;-71.7773;-5.7983;1.1920;-5.0372;-84.9518;35.0500 
831.348;0.7290;0.1997;0.5313;182.3730;-80.1392;1.3428;2.1368;-5.5811;-84.9792;35.0700 
831.348;0.7290;0.1997;0.5313;182.3730;-80.1392;1.3428;3.0762;-6.1194;-85.0122;35.0700 
831.348;0.7290;0.1997;0.5313;182.3730;-80.1392;1.3428;4.0100;-6.6522;-85.0562;35.0400 
831.348;0.7290;0.1997;0.5313;182.3730;-80.1392;1.3428;4.9493;-7.1906;-85.1056;35.0400 
831.348;0.7290;0.1997;0.5313;182.3730;-80.1392;1.3428;5.8832;-7.7234;-85.1660;35.0200 
831.348;0.7290;0.1997;0.5313;182.3730;-80.1392;1.3428;6.8115;-8.2562;-85.2374;35.0200 
831.348;0.7290;0.1997;0.5313;182.3730;-80.1392;1.3428;7.7454;-8.7836;-85.3143;35.1300 
831.348;0.7290;0.1997;0.5313;182.3730;-80.1392;1.3428;8.6737;-9.3054;-85.4022;35.1300 
831.348;0.6357;0.3394;0.2935;234.8022;-76.1108;8.3618;9.9207;-9.8328;-85.4407;35.1300 
831.358;0.6357;0.3394;0.2935;234.8022;-76.1108;8.3618;11.1621;-10.3546;-85.4956;35.0500 
831.358;0.6357;0.3394;0.2935;234.8022;-76.1108;8.3618;12.4036;-10.8765;-85.5560;35.0500 
831.358;0.6357;0.3394;0.2935;234.8022;-76.1108;8.3618;13.6450;-11.3983;-85.6329;34.9900 
831.458;0.6357;0.3394;0.2935;234.8022;-76.1108;8.3618;14.8810;-11.9147;-85.7208;34.9900 
831.458;0.6357;0.3394;0.2935;234.8022;-76.1108;8.3618;16.1224;-12.4310;-85.8142;35.0700 
831.458;0.6357;0.3394;0.2935;234.8022;-76.1108;8.3618;17.3584;-12.9419;-85.9241;35.0700 
831.458;0.6357;0.3394;0.2935;234.8022;-76.1108;8.3618;18.5944;-13.4473;-86.0449;35.0400 
831.508;0.5474;0.3887;0.1133;258.7280;-67.8101;13.4888;20.0006;-13.9252;-86.1163;35.0400 
831.508;0.5474;0.3887;0.1133;258.7280;-67.8101;13.4888;21.4014;-14.3976;-86.1932;35.0300 
831.508;0.5474;0.3887;0.1133;258.7280;-67.8101;13.4888;22.8021;-14.8755;-86.2866;35.0300 
831.508;0.5474;0.3887;0.1133;258.7280;-67.8101;13.4888;24.2029;-15.3424;-86.3965;35.0800 
831.508;0.5474;0.3887;0.1133;258.7280;-67.8101;13.4888;25.6036;-15.8093;-86.5118;35.0800 
831.508;0.5474;0.3887;0.1133;258.7280;-67.8101;13.4888;27.0044;-16.2762;-86.6437;35.1100 
831.508;0.5474;0.3887;0.1133;258.7280;-67.8101;13.4888;28.3997;-16.7322;-86.7865;35.1100 
831.508;0.5474;0.3887;0.1133;258.7280;-67.8101;13.4888;29.8004;-17.1936;-86.9403;35.1000 
831.508;0.4370;0.3608;-0.0410;264.2822;-58.2886;13.3667;31.2836;-17.5946;-87.0447;35.1000 
831.508;0.4370;0.3608;-0.0410;264.2822;-58.2886;13.3667;32.7722;-17.9901;-87.1600;35.1000 
831.508;0.4370;0.3608;-0.0410;264.2822;-58.2886;13.3667;34.2554;-18.3856;-87.2864;35.0700 
831.508;0.4370;0.3608;-0.0410;264.2822;-58.2886;13.3667;35.7385;-18.7811;-87.4237;35.0700 
831.508;0.4370;0.3608;-0.0410;264.2822;-58.2886;13.3667;37.2162;-19.1711;-87.5720;35.1100 
831.508;0.4370;0.3608;-0.0410;264.2822;-58.2886;13.3667;38.6993;-19.5557;-87.7368;35.1100 
831.508;0.4370;0.3608;-0.0410;264.2822;-58.2886;13.3667;40.1770;-19.9402;-87.9181;35.0500 
831.508;0.4370;0.3608;-0.0410;264.2822;-58.2886;13.3667;41.6547;-20.3192;-88.1049;35.0500 
831.508;0.3105;0.2983;-0.1860;263.1836;-49.6216;7.0190;43.2202;-20.5774;-88.2147;35.0300 
831.508;0.3105;0.2983;-0.1860;263.1836;-49.6216;7.0190;44.7913;-20.8301;-88.3356;35.0300 
831.508;0.3105;0.2983;-0.1860;263.1836;-49.6216;7.0190;46.3568;-21.0828;-88.4619;35.1100 
831.508;0.3105;0.2983;-0.1860;263.1836;-49.6216;7.0190;47.9224;-21.3300;-88.5992;35.1100 
831.508;0.3105;0.2983;-0.1860;263.1836;-49.6216;7.0190;49.4879;-21.5717;-88.7421;35.1300 
831.508;0.3105;0.2983;-0.1860;263.1836;-49.6216;7.0190;51.0535;-21.8079;-88.8904;35.1300 
831.508;0.3105;0.2983;-0.1860;263.1836;-49.6216;7.0190;52.6190;-22.0441;-89.0497;35.1000 
831.508;0.3105;0.2983;-0.1860;263.1836;-49.6216;7.0190;54.1791;-22.2748;-89.2200;35.1000 
831.508;0.2974;0.3516;-0.3364;260.0708;-43.9453;-3.1738;55.7666;-22.3846;-89.3793;35.0100 
831.508;0.2974;0.3516;-0.3364;260.0708;-43.9453;-3.1738;57.3541;-22.4945;-89.5386;35.0100 
831.508;0.2974;0.3516;-0.3364;260.0708;-43.9453;-3.1738;58.9362;-22.5989;-89.7034;35.0100 
831.508;0.2974;0.3516;-0.3364;260.0708;-43.9453;-3.1738;60.5182;-22.6978;-89.8737;35.0500 
831.508;0.2974;0.3516;-0.3364;260.0708;-43.9453;-3.1738;62.1002;-22.7911;-90.0439;35.0500 
831.508;0.2974;0.3516;-0.3364;260.0708;-43.9453;-3.1738;63.6768;-22.8790;-90.2142;34.9900 
831.508;0.2974;0.3516;-0.3364;260.0708;-43.9453;-3.1738;65.2533;-22.9559;-90.3900;34.9900 
831.528;0.2974;0.3516;-0.3364;260.0708;-43.9453;-3.1738;66.8298;-23.0328;-90.5658;35.0800 
831.528;0.2368;0.3267;-0.3887;246.6431;-41.2598;-13.7329;68.3514;-23.0219;-90.7471;35.0800 
831.528;0.2368;0.3267;-0.3887;246.6431;-41.2598;-13.7329;69.8730;-23.0054;-90.9338;35.0700 
831.528;0.2368;0.3267;-0.3887;246.6431;-41.2598;-13.7329;71.3892;-22.9834;-91.1151;35.0700 
831.528;0.2368;0.3267;-0.3887;246.6431;-41.2598;-13.7329;72.8998;-22.9559;-91.2964;35.0500 
831.528;0.2368;0.3267;-0.3887;246.6431;-41.2598;-13.7329;74.4104;-22.9230;-91.4777;35.0500 
831.528;0.2368;0.3267;-0.3887;246.6431;-41.2598;-13.7329;75.9155;-22.8845;-91.6589;35.0300 
831.528;0.2368;0.3267;-0.3887;246.6431;-41.2598;-13.7329;77.4152;-22.8406;-91.8347;35.0300 
831.528;0.2368;0.3267;-0.3887;246.6431;-41.2598;-13.7329;78.9093;-22.7911;-92.0160;35.0600 
831.528;0.2686;0.3857;-0.4053;213.1958;-39.7339;-22.1558;80.2277;-22.7032;-92.1973;35.0600 
831.528;0.2686;0.3857;-0.4053;213.1958;-39.7339;-22.1558;81.5350;-22.6099;-92.3730;35.1100 
831.528;0.2686;0.3857;-0.4053;213.1958;-39.7339;-22.1558;82.8424;-22.5110;-92.5488;35.1100 
831.528;0.2686;0.3857;-0.4053;213.1958;-39.7339;-22.1558;84.1443;-22.4121;-92.7191;35.1100 
831.528;0.2686;0.3857;-0.4053;213.1958;-39.7339;-22.1558;85.4462;-22.3022;-92.8894;35.0500 
831.528;0.2686;0.3857;-0.4053;213.1958;-39.7339;-22.1558;86.7371;-22.1924;-93.0487;35.0500 
831.528;0.2686;0.3857;-0.4053;213.1958;-39.7339;-22.1558;88.0225;-22.0770;-93.2080;35.0400 
831.528;0.2686;0.3857;-0.4053;213.1958;-39.7339;-22.1558;89.3079;-21.9617;-93.3673;35.0400 
831.528;0.2314;0.2476;-0.3398;158.1421;-37.8418;-27.0386;90.3241;-21.8079;-93.4827;35.0400 
831.528;0.2314;0.2476;-0.3398;158.1421;-37.8418;-27.0386;91.3403;-21.6541;-93.5980;35.0400 
831.528;0.2314;0.2476;-0.3398;158.1421;-37.8418;-27.0386;92.3511;-21.4948;-93.7134;35.0300 
831.528;0.2314;0.2476;-0.3398;158.1421;-37.8418;-27.0386;93.3563;-21.3354;-93.8177;35.0300 
831.528;0.2314;0.2476;-0.3398;158.1421;-37.8418;-27.0386;94.3616;-21.1761;-93.9221;35.0200 
831.528;0.2314;0.2476;-0.3398;158.1421;-37.8418;-27.0386;95.3558;-21.0114;-94.0210;35.0200 
831.548;0.2314;0.2476;-0.3398;158.1421;-37.8418;-27.0386;96.3501;-20.8466;-94.1199;35.0800 
831.548;0.2314;0.2476;-0.3398;158.1421;-37.8418;-27.0386;97.3444;-20.6818;-94.2133;35.0800 
831.548;0.1470;0.3657;-0.2329;91.7358;-33.8745;-27.6489;97.9321;-20.5115;-94.3561;35.0600 
831.548;0.1470;0.3657;-0.2329;91.7358;-33.8745;-27.6489;98.5144;-20.3412;-94.4989;35.0600 
831.548;0.1470;0.3657;-0.2329;91.7358;-33.8745;-27.6489;99.0967;-20.1709;-94.6417;35.0600 
831.548;0.1470;0.3657;-0.2329;91.7358;-33.8745;-27.6489;99.6790;-20.0006;-94.7791;35.0600 
831.548;0.1470;0.3657;-0.2329;91.7358;-33.8745;-27.6489;100.2557;-19.8303;-94.9164;35.0600 
831.548;0.1470;0.3657;-0.2329;91.7358;-33.8745;-27.6489;100.8270;-19.6545;-95.0537;35.0900 
831.568;0.1470;0.3657;-0.2329;91.7358;-33.8745;-27.6489;101.3983;-19.4843;-95.1855;35.0900 
831.568;0.1470;0.3657;-0.2329;91.7358;-33.8745;-27.6489;101.9696;-19.3085;-95.3174;34.9900 
831.568;0.0542;0.2080;-0.1777;32.8369;-28.3203;-21.4233;102.2552;-19.1437;-95.4108;34.9900 
831.568;0.0542;0.2080;-0.1777;32.8369;-28.3203;-21.4233;102.5409;-18.9789;-95.5042;35.0500 
831.578;0.0542;0.2080;-0.1777;32.8369;-28.3203;-21.4233;102.8265;-18.8141;-95.5975;35.0500 
831.578;0.0542;0.2080;-0.1777;32.8369;-28.3203;-21.4233;103.1122;-18.6493;-95.6854;35.0500 
831.578;0.0542;0.2080;-0.1777;32.8369;-28.3203;-21.4233;103.3923;-18.4790;-95.7788;35.0500 
831.578;0.0542;0.2080;-0.1777;32.8369;-28.3203;-21.4233;103.6725;-18.3142;-95.8667;35.1100 
831.658;0.0542;0.2080;-0.1777;32.8369;-28.3203;-21.4233;103.9526;-18.1494;-95.9546;35.1100 
831.658;0.0542;0.2080;-0.1777;32.8369;-28.3203;-21.4233;104.2328;-17.9846;-96.0425;35.1000 
831.658;0.1392;0.5913;-0.1460;-4.5166;-22.8882;-9.3384;104.2383;-17.8967;-96.1633;35.1000 
831.668;0.1392;0.5913;-0.1460;-4.5166;-22.8882;-9.3384;104.2493;-17.8088;-96.2897;35.0900 
831.668;0.1392;0.5913;-0.1460;-4.5166;-22.8882;-9.3384;104.2603;-17.7209;-96.4105;35.0900 
831.668;0.1392;0.5913;-0.1460;-4.5166;-22.8882;-9.3384;104.2657;-17.6331;-96.5314;35.0900 
831.668;0.1392;0.5913;-0.1460;-4.5166;-22.8882;-9.3384;104.2767;-17.5452;-96.6522;35.0200 
831.668;0.1392;0.5913;-0.1460;-4.5166;-22.8882;-9.3384;104.2822;-17.4573;-96.7731;35.0200 
831.668;0.1392;0.5913;-0.1460;-4.5166;-22.8882;-9.3384;104.2932;-17.3694;-96.8939;35.0500 
831.668;0.1392;0.5913;-0.1460;-4.5166;-22.8882;-9.3384;104.2987;-17.2815;-97.0148;35.0500 
831.668;0.1436;0.6470;-0.1357;-18.6157;-17.0288;3.3569;104.2273;-17.2595;-97.1246;35.0400 
831.668;0.1436;0.6470;-0.1357;-18.6157;-17.0288;3.3569;104.1559;-17.2430;-97.2290;35.0400 
831.668;0.1436;0.6470;-0.1357;-18.6157;-17.0288;3.3569;104.0845;-17.2211;-97.3389;35.0200 
831.668;0.1436;0.6470;-0.1357;-18.6157;-17.0288;3.3569;104.0076;-17.2046;-97.4432;35.0200 
831.668;0.1436;0.6470;-0.1357;-18.6157;-17.0288;3.3569;103.9362;-17.1826;-97.5476;35.0700 
831.678;0.1436;0.6470;-0.1357;-18.6157;-17.0288;3.3569;103.8647;-17.1661;-97.6575;35.0700 
831.688;0.1436;0.6470;-0.1357;-18.6157;-17.0288;3.3569;103.7933;-17.1442;-97.7618;35.0400 
831.688;0.1436;0.6470;-0.1357;-18.6157;-17.0288;3.3569;103.7219;-17.1277;-97.8662;35.0400 
831.698;0.2876;0.9458;-0.1519;-19.2261;-9.9487;13.7329;103.6340;-17.1771;-97.9541;35.0600 
831.698;0.2876;0.9458;-0.1519;-19.2261;-9.9487;13.7329;103.5461;-17.2321;-98.0420;35.0600 
831.737;0.2876;0.9458;-0.1519;-19.2261;-9.9487;13.7329;103.4583;-17.2815;-98.1354;35.0500 
831.737;0.2876;0.9458;-0.1519;-19.2261;-9.9487;13.7329;103.3649;-17.3364;-98.2233;35.0500 
831.747;0.2876;0.9458;-0.1519;-19.2261;-9.9487;13.7329;103.2770;-17.3914;-98.3112;35.0500 
831.747;0.2876;0.9458;-0.1519;-19.2261;-9.9487;13.7329;103.1891;-17.4408;-98.3990;35.1200 
831.747;0.2876;0.9458;-0.1519;-19.2261;-9.9487;13.7329;103.1012;-17.4957;-98.4869;35.1200 
831.747;0.2876;0.9458;-0.1519;-19.2261;-9.9487;13.7329;103.0133;-17.5452;-98.5748;34.9900 
831.758;0.3423;1.0337;-0.1377;-14.2822;-2.8687;17.5781;102.9364;-17.6276;-98.6298;34.9900 
831.758;0.3423;1.0337;-0.1377;-14.2822;-2.8687;17.5781;102.8595;-17.7100;-98.6902;35.0400 
831.758;0.3423;1.0337;-0.1377;-14.2822;-2.8687;17.5781;102.7826;-17.7924;-98.7506;35.0400 
831.758;0.3423;1.0337;-0.1377;-14.2822;-2.8687;17.5781;102.7112;-17.8748;-98.8055;35.0500 
831.837;0.3423;1.0337;-0.1377;-14.2822;-2.8687;17.5781;102.6343;-17.9572;-98.8660;35.0500 
831.837;0.3423;1.0337;-0.1377;-14.2822;-2.8687;17.5781;102.5574;-18.0396;-98.9264;35.0200 
831.837;0.3423;1.0337;-0.1377;-14.2822;-2.8687;17.5781;102.4805;-18.1219;-98.9813;35.0200 
831.848;0.3423;1.0337;-0.1377;-14.2822;-2.8687;17.5781;102.4091;-18.2043;-99.0417;35.1200 
831.848;0.3320;1.0957;-0.1206;-8.5449;3.0518;14.8315;102.3486;-18.2758;-99.0637;35.1200 
831.848;0.3320;1.0957;-0.1206;-8.5449;3.0518;14.8315;102.2882;-18.3417;-99.0912;35.0600 
831.848;0.3320;1.0957;-0.1206;-8.5449;3.0518;14.8315;102.2278;-18.4131;-99.1132;35.0600 
831.848;0.3320;1.0957;-0.1206;-8.5449;3.0518;14.8315;102.1674;-18.4845;-99.1351;35.0500 
831.848;0.3320;1.0957;-0.1206;-8.5449;3.0518;14.8315;102.1069;-18.5504;-99.1626;35.0500 
831.848;0.3320;1.0957;-0.1206;-8.5449;3.0518;14.8315;102.0465;-18.6218;-99.1846;35.0500 
831.848;0.3320;1.0957;-0.1206;-8.5449;3.0518;14.8315;101.9861;-18.6877;-99.2065;35.0300 
831.877;0.3320;1.0957;-0.1206;-8.5449;3.0518;14.8315;101.9312;-18.7592;-99.2340;35.0300 
831.877;0.3169;1.0952;-0.0933;-4.6997;6.5918;10.1929;101.8762;-18.8086;-99.2340;35.0200 
831.897;0.3169;1.0952;-0.0933;-4.6997;6.5918;10.1929;101.8268;-18.8525;-99.2340;35.0200 
831.897;0.3169;1.0952;-0.0933;-4.6997;6.5918;10.1929;101.7773;-18.9020;-99.2340;35.0800 
831.907;0.3169;1.0952;-0.0933;-4.6997;6.5918;10.1929;101.7224;-18.9459;-99.2340;35.0800 
831.907;0.3169;1.0952;-0.0933;-4.6997;6.5918;10.1929;101.6730;-18.9954;-99.2340;35.0900 
831.907;0.3169;1.0952;-0.0933;-4.6997;6.5918;10.1929;101.6235;-19.0393;-99.2340;35.0900 
831.907;0.3169;1.0952;-0.0933;-4.6997;6.5918;10.1929;101.5741;-19.0833;-99.2340;35.0500 
831.917;0.3169;1.0952;-0.0933;-4.6997;6.5918;10.1929;101.5192;-19.1327;-99.2340;35.0500 
831.917;0.2964;1.0576;-0.0605;-1.7700;6.5918;5.7983;101.4807;-19.1547;-99.2285;35.0300 
831.917;0.2964;1.0576;-0.0605;-1.7700;6.5918;5.7983;101.4368;-19.1766;-99.2230;35.0300 
831.917;0.2964;1.0576;-0.0605;-1.7700;6.5918;5.7983;101.3928;-19.1986;-99.2175;35.0500 
831.937;0.2964;1.0576;-0.0605;-1.7700;6.5918;5.7983;101.3544;-19.2206;-99.2175;35.0500 
831.937;0.2964;1.0576;-0.0605;-1.7700;6.5918;5.7983;101.3104;-19.2426;-99.2120;35.0500 
831.937;0.2964;1.0576;-0.0605;-1.7700;6.5918;5.7983;101.2720;-19.2645;-99.2065;34.9900 
831.937;0.2964;1.0576;-0.0605;-1.7700;6.5918;5.7983;101.2280;-19.2865;-99.2010;34.9900 
832.027;0.2964;1.0576;-0.0605;-1.7700;6.5918;5.7983;101.1896;-19.3140;-99.1956;35.0400 
832.027;0.2769;1.0137;-0.0352;0.0610;4.5776;1.9531;101.1511;-19.3140;-99.2010;35.0400 
832.027;0.2769;1.0137;-0.0352;0.0610;4.5776;1.9531;101.1182;-19.3140;-99.2010;35.0900 
832.027;0.2769;1.0137;-0.0352;0.0610;4.5776;1.9531;101.0852;-19.3085;-99.2010;35.0900 
832.047;0.2769;1.0137;-0.0352;0.0610;4.5776;1.9531;101.0522;-19.3085;-99.2065;35.0600 
832.047;0.2769;1.0137;-0.0352;0.0610;4.5776;1.9531;101.0193;-19.3085;-99.2065;35.0600 
832.047;0.2769;1.0137;-0.0352;0.0610;4.5776;1.9531;100.9863;-19.3085;-99.2120;35.0600 
832.047;0.2769;1.0137;-0.0352;0.0610;4.5776;1.9531;100.9534;-19.3085;-99.2175;35.0600 
832.047;0.2769;1.0137;-0.0352;0.0610;4.5776;1.9531;100.9204;-19.3085;-99.2175;35.0900 
832.047;0.2632;0.9771;-0.0195;1.0986;2.3193;-0.5493;100.8929;-19.2975;-99.2285;35.0900 
832.047;0.2632;0.9771;-0.0195;1.0986;2.3193;-0.5493;100.8655;-19.2810;-99.2450;35.0500 
832.047;0.2632;0.9771;-0.0195;1.0986;2.3193;-0.5493;100.8380;-19.2645;-99.2560;35.0500 
832.047;0.2632;0.9771;-0.0195;1.0986;2.3193;-0.5493;100.8105;-19.2480;-99.2725;35.0700 
832.047;0.2632;0.9771;-0.0195;1.0986;2.3193;-0.5493;100.7831;-19.2371;-99.2834;35.0700 
832.047;0.2632;0.9771;-0.0195;1.0986;2.3193;-0.5493;100.7556;-19.2206;-99.2999;35.0700 
832.047;0.2632;0.9771;-0.0195;1.0986;2.3193;-0.5493;100.7336;-19.2041;-99.3109;35.0100 
832.047;0.2632;0.9771;-0.0195;1.0986;2.3193;-0.5493;100.7062;-19.1876;-99.3274;35.0100 
832.077;0.2559;0.9526;-0.0132;1.3428;0.5493;-1.7700;100.6787;-19.1656;-99.3494;35.1000 
832.077;0.2559;0.9526;-0.0132;1.3428;0.5493;-1.7700;100.6567;-19.1437;-99.3713;35.1000 
832.077;0.2559;0.9526;-0.0132;1.3428;0.5493;-1.7700;100.6348;-19.1217;-99.3933;35.1100 
832.077;0.2559;0.9526;-0.0132;1.3428;0.5493;-1.7700;100.6128;-19.0997;-99.4153;35.1100 
832.097;0.2559;0.9526;-0.0132;1.3428;0.5493;-1.7700;100.5853;-19.0778;-99.4373;35.0200 
832.097;0.2559;0.9526;-0.0132;1.3428;0.5493;-1.7700;100.5634;-19.0558;-99.4592;35.0200 
832.097;0.2559;0.9526;-0.0132;1.3428;0.5493;-1.7700;100.5414;-19.0283;-99.4812;35.1300 
832.097;0.2559;0.9526;-0.0132;1.3428;0.5493;-1.7700;100.5194;-19.0063;-99.5032;35.1300 
832.107;0.2534;0.9414;-0.0132;1.0986;-0.4883;-1.9531;100.4919;-18.9844;-99.5306;35.0100 
832.107;0.2534;0.9414;-0.0132;1.0986;-0.4883;-1.9531;100.4700;-18.9624;-99.5581;35.0100 
832.107;0.2534;0.9414;-0.0132;1.0986;-0.4883;-1.9531;100.4480;-18.9349;-99.5856;35.0700 
832.107;0.2534;0.9414;-0.0132;1.0986;-0.4883;-1.9531;100.4260;-18.9130;-99.6130;35.0700 
832.117;0.2534;0.9414;-0.0132;1.0986;-0.4883;-1.9531;100.4041;-18.8910;-99.6350;35.1200 
832.117;0.2534;0.9414;-0.0132;1.0986;-0.4883;-1.9531;100.3821;-18.8635;-99.6625;35.1200 
832.117;0.2534;0.9414;-0.0132;1.0986;-0.4883;-1.9531;100.3601;-18.8416;-99.6899;35.1200 
832.117;0.2534;0.9414;-0.0132;1.0986;-0.4883;-1.9531;100.3381;-18.8196;-99.7174;35.0600 
832.137;0.2544;0.9399;-0.0166;0.6714;-0.9155;-1.5869;100.3162;-18.7976;-99.7449;35.0600 
832.137;0.2544;0.9399;-0.0166;0.6714;-0.9155;-1.5869;100.2942;-18.7756;-99.7723;35.0600 
832.137;0.2544;0.9399;-0.0166;0.6714;-0.9155;-1.5869;100.2667;-18.7537;-99.7998;35.0600 
832.137;0.2544;0.9399;-0.0166;0.6714;-0.9155;-1.5869;100.2448;-18.7317;-99.8273;35.0800 
832.137;0.2544;0.9399;-0.0166;0.6714;-0.9155;-1.5869;100.2228;-18.7097;-99.8547;35.0800 
832.137;0.2544;0.9399;-0.0166;0.6714;-0.9155;-1.5869;100.2008;-18.6932;-99.8822;35.0500 
832.137;0.2544;0.9399;-0.0166;0.6714;-0.9155;-1.5869;100.1788;-18.6713;-99.9097;35.0500 
832.137;0.2544;0.9399;-0.0166;0.6714;-0.9155;-1.5869;100.1569;-18.6493;-99.9371;35.0500 
832.217;0.2568;0.9438;-0.0215;0.3052;-0.9155;-0.9766;100.1349;-18.6328;-99.9646;35.0500 
832.217;0.2568;0.9438;-0.0215;0.3052;-0.9155;-0.9766;100.1074;-18.6108;-99.9921;35.0700 
832.217;0.2568;0.9438;-0.0215;0.3052;-0.9155;-0.9766;100.0854;-18.5944;-100.0195;35.0700 
832.217;0.2568;0.9438;-0.0215;0.3052;-0.9155;-0.9766;100.0635;-18.5779;-100.0470;35.0800 
832.217;0.2568;0.9438;-0.0215;0.3052;-0.9155;-0.9766;100.0415;-18.5614;-100.0745;35.0800 
832.217;0.2568;0.9438;-0.0215;0.3052;-0.9155;-0.9766;100.0195;-18.5449;-100.1019;35.0600 
832.217;0.2568;0.9438;-0.0215;0.3052;-0.9155;-0.9766;99.9921;-18.5284;-100.1294;35.0600 
832.227;0.2568;0.9438;-0.0215;0.3052;-0.9155;-0.9766;99.9701;-18.5065;-100.1569;35.0600 
832.227;0.2593;0.9497;-0.0254;0.0000;-0.6714;-0.4272;99.9481;-18.4955;-100.1843;35.0400 
832.227;0.2593;0.9497;-0.0254;0.0000;-0.6714;-0.4272;99.9261;-18.4790;-100.2118;35.0400 
832.227;0.2593;0.9497;-0.0254;0.0000;-0.6714;-0.4272;99.8987;-18.4680;-100.2393;35.0300 
832.227;0.2593;0.9497;-0.0254;0.0000;-0.6714;-0.4272;99.8767;-18.4515;-100.2667;35.0300 
832.227;0.2593;0.9497;-0.0254;0.0000;-0.6714;-0.4272;99.8547;-18.4406;-100.2942;35.0300 
832.227;0.2593;0.9497;-0.0254;0.0000;-0.6714;-0.4272;99.8328;-18.4241;-100.3162;35.0300 
832.227;0.2593;0.9497;-0.0254;0.0000;-0.6714;-0.4272;99.8053;-18.4131;-100.3436;35.0400 
832.227;0.2593;0.9497;-0.0254;0.0000;-0.6714;-0.4272;99.7833;-18.3966;-100.3711;35.0400 
832.227;0.2612;0.9556;-0.0278;-0.1221;-0.3662;0.0000;99.7614;-18.3856;-100.3986;35.0100 
832.227;0.2612;0.9556;-0.0278;-0.1221;-0.3662;0.0000;99.7339;-18.3746;-100.4260;35.0100 
832.227;0.2612;0.9556;-0.0278;-0.1221;-0.3662;0.0000;99.7119;-18.3636;-100.4480;35.1000 
832.227;0.2612;0.9556;-0.0278;-0.1221;-0.3662;0.0000;99.6899;-18.3527;-100.4755;35.1000 
832.227;0.2612;0.9556;-0.0278;-0.1221;-0.3662;0.0000;99.6680;-18.3417;-100.4974;35.1100 
832.227;0.2612;0.9556;-0.0278;-0.1221;-0.3662;0.0000;99.6405;-18.3307;-100.5249;35.1100 
832.227;0.2612;0.9556;-0.0278;-0.1221;-0.3662;0.0000;99.6185;-18.3197;-100.5469;35.1100 
832.227;0.2612;0.9556;-0.0278;-0.1221;-0.3662;0.0000;99.5966;-18.3087;-100.5743;35.0600 
832.227;0.2622;0.9595;-0.0288;-0.1831;-0.1221;0.1221;99.5691;-18.2977;-100.5963;35.0600 
832.227;0.2622;0.9595;-0.0288;-0.1831;-0.1221;0.1221;99.5471;-18.2867;-100.6183;35.0100 
832.237;0.2622;0.9595;-0.0288;-0.1831;-0.1221;0.1221;99.5251;-18.2813;-100.6403;35.0100 
832.237;0.2622;0.9595;-0.0288;-0.1831;-0.1221;0.1221;99.5032;-18.2703;-100.6622;35.0300 
832.237;0.2622;0.9595;-0.0288;-0.1831;-0.1221;0.1221;99.4757;-18.2593;-100.6842;35.0300 
832.237;0.2622;0.9595;-0.0288;-0.1831;-0.1221;0.1221;99.4537;-18.2483;-100.7117;35.0600 
832.237;0.2622;0.9595;-0.0288;-0.1831;-0.1221;0.1221;99.4318;-18.2373;-100.7336;35.0600 
832.237;0.2622;0.9595;-0.0288;-0.1831;-0.1221;0.1221;99.4043;-18.2318;-100.7556;35.1100 
832.237;0.2627;0.9614;-0.0293;-0.1831;0.0000;0.1831;99.3823;-18.2208;-100.7831;35.1100 
832.237;0.2627;0.9614;-0.0293;-0.1831;0.0000;0.1831;99.3604;-18.2098;-100.8051;35.0800 
832.247;0.2627;0.9614;-0.0293;-0.1831;0.0000;0.1831;99.3384;-18.1989;-100.8270;35.0800 
832.247;0.2627;0.9614;-0.0293;-0.1831;0.0000;0.1831;99.3164;-18.1934;-100.8490;35.1000 
832.247;0.2627;0.9614;-0.0293;-0.1831;0.0000;0.1831;99.2889;-18.1824;-100.8765;35.1000 
832.247;0.2627;0.9614;-0.0293;-0.1831;0.0000;0.1831;99.2670;-18.1714;-100.8984;35.1100 
832.257;0.2627;0.9614;-0.0293;-0.1831;0.0000;0.1831;99.2450;-18.1659;-100.9204;35.1100 
832.257;0.2627;0.9614;-0.0293;-0.1831;0.0000;0.1831;99.2230;-18.1549;-100.9424;35.1100 
832.257;0.2627;0.9614;-0.0283;-0.1221;0.0610;0.1831;99.2010;-18.1439;-100.9644;35.0500 
832.257;0.2627;0.9614;-0.0283;-0.1221;0.0610;0.1831;99.1791;-18.1384;-100.9918;35.0500 
832.267;0.2627;0.9614;-0.0283;-0.1221;0.0610;0.1831;99.1516;-18.1274;-101.0138;35.0700 
832.267;0.2627;0.9614;-0.0283;-0.1221;0.0610;0.1831;99.1296;-18.1165;-101.0358;35.0700 
832.267;0.2627;0.9614;-0.0283;-0.1221;0.0610;0.1831;99.1077;-18.1110;-101.0522;35.0500 
832.267;0.2627;0.9614;-0.0283;-0.1221;0.0610;0.1831;99.0857;-18.1000;-101.0742;35.0500 
832.277;0.2627;0.9614;-0.0283;-0.1221;0.0610;0.1831;99.0637;-18.0890;-101.0962;35.0500 
832.277;0.2627;0.9614;-0.0283;-0.1221;0.0610;0.1831;99.0417;-18.0835;-101.1182;35.0500 
832.277;0.2622;0.9609;-0.0273;-0.0610;0.0610;0.0610;99.0198;-18.0725;-101.1346;35.1100 
832.277;0.2622;0.9609;-0.0273;-0.0610;0.0610;0.0610;98.9978;-18.0615;-101.1566;35.1100 
832.287;0.2622;0.9609;-0.0273;-0.0610;0.0610;0.0610;98.9758;-18.0560;-101.1786;35.0600 
832.287;0.2622;0.9609;-0.0273;-0.0610;0.0610;0.0610;98.9539;-18.0450;-101.2006;35.0600 
832.287;0.2622;0.9609;-0.0273;-0.0610;0.0610;0.0610;98.9319;-18.0341;-101.2170;35.0800 
832.297;0.2622;0.9609;-0.0273;-0.0610;0.0610;0.0610;98.9099;-18.0286;-101.2390;35.0800 
832.297;0.2622;0.9609;-0.0273;-0.0610;0.0610;0.0610;98.8879;-18.0176;-101.2610;35.0500 
832.297;0.2622;0.9609;-0.0273;-0.0610;0.0610;0.0610;98.8660;-18.0066;-101.2775;35.0500 
832.327;0.2617;0.9600;-0.0264;0.0000;0.0610;0.0000;98.8440;-18.0011;-101.2994;35.0500 
832.327;0.2617;0.9600;-0.0264;0.0000;0.0610;0.0000;98.8220;-17.9901;-101.3159;35.0700 
832.417;0.2617;0.9600;-0.0264;0.0000;0.0610;0.0000;98.8000;-17.9791;-101.3379;35.0700 
832.417;0.2617;0.9600;-0.0264;0.0000;0.0610;0.0000;98.7781;-17.9681;-101.3599;35.0600 
832.427;0.2617;0.9600;-0.0264;0.0000;0.0610;0.0000;98.7561;-17.9626;-101.3763;35.0600 
832.427;0.2617;0.9600;-0.0264;0.0000;0.0610;0.0000;98.7396;-17.9517;-101.3983;35.1200 
832.437;0.2617;0.9600;-0.0264;0.0000;0.0610;0.0000;98.7177;-17.9407;-101.4203;35.1200 
832.437;0.2617;0.9600;-0.0264;0.0000;0.0610;0.0000;98.6957;-17.9352;-101.4368;35.0500 
832.437;0.2617;0.9590;-0.0264;0.0000;0.0610;0.0000;98.6737;-17.9242;-101.4587;35.0500 
832.437;0.2617;0.9590;-0.0264;0.0000;0.0610;0.0000;98.6517;-17.9132;-101.4752;35.0400 
832.437;0.2617;0.9590;-0.0264;0.0000;0.0610;0.0000;98.6298;-17.9077;-101.4972;35.0400 
832.437;0.2617;0.9590;-0.0264;0.0000;0.0610;0.0000;98.6133;-17.8967;-101.5192;35.0600 
832.437;0.2617;0.9590;-0.0264;0.0000;0.0610;0.0000;98.5913;-17.8857;-101.5356;35.0600 
832.437;0.2617;0.9590;-0.0264;0.0000;0.0610;0.0000;98.5693;-17.8802;-101.5576;35.0700 
832.437;0.2617;0.9590;-0.0264;0.0000;0.0610;0.0000;98.5474;-17.8693;-101.5741;35.0700 
832.437;0.2617;0.9590;-0.0264;0.0000;0.0610;0.0000;98.5309;-17.8583;-101.5961;35.1200 
832.437;0.2612;0.9580;-0.0264;0.0000;0.0000;0.0000;98.5089;-17.8528;-101.6125;35.1200 
832.437;0.2612;0.9580;-0.0264;0.0000;0.0000;0.0000;98.4869;-17.8418;-101.6345;35.1200 
832.437;0.2612;0.9580;-0.0264;0.0000;0.0000;0.0000;98.4650;-17.8363;-101.6510;35.1000 
832.437;0.2612;0.9580;-0.0264;0.0000;0.0000;0.0000;98.4485;-17.8253;-101.6730;35.1000 
832.437;0.2612;0.9580;-0.0264;0.0000;0.0000;0.0000;98.4265;-17.8143;-101.6895;35.0500 
832.437;0.2612;0.9580;-0.0264;0.0000;0.0000;0.0000;98.4045;-17.8088;-101.7114;35.0500 
832.437;0.2612;0.9580;-0.0264;0.0000;0.0000;0.0000;98.3881;-17.7979;-101.7279;35.1000 
832.437;0.2612;0.9580;-0.0264;0.0000;0.0000;0.0000;98.3661;-17.7924;-101.7444;35.1000 
832.437;0.2612;0.9580;-0.0269;0.0000;0.0000;-0.0610;98.3441;-17.7814;-101.7609;35.0900 
832.447;0.2612;0.9580;-0.0269;0.0000;0.0000;-0.0610;98.3276;-17.7704;-101.7828;35.0900 
832.447;0.2612;0.9580;-0.0269;0.0000;0.0000;-0.0610;98.3057;-17.7649;-101.7993;35.0200 
832.447;0.2612;0.9580;-0.0269;0.0000;0.0000;-0.0610;98.2892;-17.7539;-101.8158;35.0200 
832.447;0.2612;0.9580;-0.0269;0.0000;0.0000;-0.0610;98.2672;-17.7429;-101.8378;34.9900 
832.487;0.2612;0.9580;-0.0269;0.0000;0.0000;-0.0610;98.2452;-17.7374;-101.8542;34.9900 
832.487;0.2612;0.9580;-0.0269;0.0000;0.0000;-0.0610;98.2288;-17.7264;-101.8762;35.0400 
832.507;0.2612;0.9580;-0.0269;0.0000;0.0000;-0.0610;98.2068;-17.7209;-101.8927;35.0400 
832.507;0.2612;0.9580;-0.0273;0.0000;0.0000;-0.0610;98.1903;-17.7100;-101.9092;35.0400 
832.517;0.2612;0.9580;-0.0273;0.0000;0.0000;-0.0610;98.1683;-17.6990;-101.9312;35.0200 
832.517;0.2612;0.9580;-0.0273;0.0000;0.0000;-0.0610;98.1519;-17.6935;-101.9476;35.0200 
832.527;0.2612;0.9580;-0.0273;0.0000;0.0000;-0.0610;98.1299;-17.6825;-101.9641;35.0700 
832.527;0.2612;0.9580;-0.0273;0.0000;0.0000;-0.0610;98.1134;-17.6770;-101.9806;35.0700 
832.527;0.2612;0.9580;-0.0273;0.0000;0.0000;-0.0610;98.0914;-17.6660;-102.0026;35.0600 
832.527;0.2612;0.9580;-0.0273;0.0000;0.0000;-0.0610;98.0750;-17.6605;-102.0190;35.0600 
832.577;0.2612;0.9580;-0.0273;0.0000;0.0000;-0.0610;98.0530;-17.6495;-102.0355;35.0700 
832.577;0.2612;0.9580;-0.0273;0.0000;0.0000;0.0000;98.0365;-17.6440;-102.0575;35.0700 
832.577;0.2612;0.9580;-0.0273;0.0000;0.0000;0.0000;98.0145;-17.6331;-102.0740;35.0600 
832.681;0.2612;0.9580;-0.0273;0.0000;0.0000;0.0000;97.9980;-17.6276;-102.0905;35.0600 
832.681;0.2612;0.9580;-0.0273;0.0000;0.0000;0.0000;97.9816;-17.6166;-102.1124;35.1100 
832.681;0.2612;0.9580;-0.0273;0.0000;0.0000;0.0000;97.9596;-17.6111;-102.1289;35.1100 
832.681;0.2612;0.9580;-0.0273;0.0000;0.0000;0.0000;97.9431;-17.6001;-102.1454;35.0700 
832.701;0.2612;0.9580;-0.0273;0.0000;0.0000;0.0000;97.9211;-17.5946;-102.1674;35.0700 
832.701;0.2612;0.9580;-0.0273;0.0000;0.0000;0.0000;97.9047;-17.5836;-102.1838;35.0700 
832.701;0.2617;0.9585;-0.0273;0.0000;0.0000;0.0000;97.8882;-17.5781;-102.2003;35.0700 
832.701;0.2617;0.9585;-0.0273;0.0000;0.0000;0.0000;97.8662;-17.5671;-102.2223;35.0700 
832.701;0.2617;0.9585;-0.0273;0.0000;0.0000;0.0000;97.8497;-17.5616;-102.2388;35.0600 
832.701;0.2617;0.9585;-0.0273;0.0000;0.0000;0.0000;97.8333;-17.5507;-102.2552;35.0600 
832.701;0.2617;0.9585;-0.0273;0.0000;0.0000;0.0000;97.8113;-17.5452;-102.2717;35.0400 
832.701;0.2617;0.9585;-0.0273;0.0000;0.0000;0.0000;97.7948;-17.5397;-102.2937;35.0400 
832.701;0.2617;0.9585;-0.0273;0.0000;0.0000;0.0000;97.7783;-17.5287;-102.3102;35.1100 
832.701;0.2622;0.9585;-0.0273;0.0000;0.0000;0.0000;97.7563;-17.5232;-102.3267;35.1100 
832.701;0.2622;0.9585;-0.0273;0.0000;0.0000;0.0000;97.7399;-17.5122;-102.3431;35.0600 
832.701;0.2622;0.9585;-0.0273;0.0000;0.0000;0.0000;97.7234;-17.5067;-102.3596;35.0600 
832.701;0.2622;0.9585;-0.0273;0.0000;0.0000;0.0000;97.7014;-17.5012;-102.3761;35.0100 
832.701;0.2622;0.9585;-0.0273;0.0000;0.0000;0.0000;97.6849;-17.4902;-102.3926;35.0100 
832.701;0.2622;0.9585;-0.0273;0.0000;0.0000;0.0000;97.6685;-17.4847;-102.4091;35.0800 
832.701;0.2622;0.9585;-0.0273;0.0000;0.0000;0.0000;97.6520;-17.4792;-102.4255;35.0800 
832.701;0.2622;0.9585;-0.0273;0.0000;0.0000;0.0000;97.6300;-17.4683;-102.4475;35.1300 
832.701;0.2627;0.9590;-0.0273;0.0000;0.0000;0.0000;97.6135;-17.4628;-102.4640;35.1300 
832.701;0.2627;0.9590;-0.0273;0.0000;0.0000;0.0000;97.5970;-17.4573;-102.4805;35.0700 
832.701;0.2627;0.9590;-0.0273;0.0000;0.0000;0.0000;97.5806;-17.4463;-102.4969;35.0700 
832.701;0.2627;0.9590;-0.0273;0.0000;0.0000;0.0000;97.5641;-17.4408;-102.5134;35.0700 
832.701;0.2627;0.9590;-0.0273;0.0000;0.0000;0.0000;97.5421;-17.4353;-102.5354;35.0500 
832.701;0.2627;0.9590;-0.0273;0.0000;0.0000;0.0000;97.5256;-17.4243;-102.5519;35.0500 
832.701;0.2627;0.9590;-0.0273;0.0000;0.0000;0.0000;97.5092;-17.4188;-102.5684;35.0700 
832.701;0.2627;0.9590;-0.0273;0.0000;0.0000;0.0000;97.4927;-17.4133;-102.5848;35.0700 
832.701;0.2632;0.9590;-0.0269;0.0000;0.0000;0.0000;97.4762;-17.4023;-102.6068;35.0800 
832.701;0.2632;0.9590;-0.0269;0.0000;0.0000;0.0000;97.4597;-17.3969;-102.6233;35.0800 
832.721;0.2632;0.9590;-0.0269;0.0000;0.0000;0.0000;97.4377;-17.3914;-102.6398;35.0000 
832.721;0.2632;0.9590;-0.0269;0.0000;0.0000;0.0000;97.4213;-17.3804;-102.6563;35.0000 
832.721;0.2632;0.9590;-0.0269;0.0000;0.0000;0.0000;97.4048;-17.3749;-102.6727;35.0300 
832.721;0.2632;0.9590;-0.0269;0.0000;0.0000;0.0000;97.3883;-17.3694;-102.6892;35.0300 
832.731;0.2632;0.9590;-0.0269;0.0000;0.0000;0.0000;97.3718;-17.3639;-102.7057;35.0400 
832.731;0.2632;0.9590;-0.0269;0.0000;0.0000;0.0000;97.3553;-17.3529;-102.7222;35.0400 
832.731;0.2632;0.9590;-0.0269;0.0000;0.0000;0.0000;97.3389;-17.3474;-102.7386;35.1300 
832.731;0.2632;0.9590;-0.0269;0.0000;0.0000;0.0000;97.3224;-17.3419;-102.7551;35.1300 
832.741;0.2632;0.9590;-0.0269;0.0000;0.0000;0.0000;97.3059;-17.3364;-102.7716;35.1100 
832.741;0.2632;0.9590;-0.0269;0.0000;0.0000;0.0000;97.2894;-17.3254;-102.7881;35.1100 
832.771;0.2632;0.9590;-0.0269;0.0000;0.0000;0.0000;97.2675;-17.3199;-102.8046;35.1100 
832.771;0.2632;0.9590;-0.0269;0.0000;0.0000;0.0000;97.2510;-17.3145;-102.8210;35.0200 
832.771;0.2632;0.9590;-0.0269;0.0000;0.0000;0.0000;97.2345;-17.3090;-102.8375;35.0200 
832.771;0.2632;0.9590;-0.0269;0.0000;0.0000;0.0000;97.2180;-17.3035;-102.8540;35.1100 
832.871;0.2632;0.9590;-0.0269;0.0000;0.0000;0.0000;97.2015;-17.2925;-102.8705;35.1100 
832.871;0.2632;0.9590;-0.0269;0.0000;0.0000;0.0000;97.1851;-17.2870;-102.8870;35.0400 
832.871;0.2632;0.9590;-0.0269;0.0000;0.0000;0.0000;97.1686;-17.2815;-102.9034;35.0400 
832.871;0.2632;0.9590;-0.0269;0.0000;0.0000;0.0000;97.1521;-17.2760;-102.9199;34.9900 
832.891;0.2632;0.9590;-0.0269;0.0000;0.0000;0.0000;97.1356;-17.2705;-102.9364;34.9900 
832.891;0.2632;0.9590;-0.0269;0.0000;0.0000;0.0000;97.1191;-17.2595;-102.9529;35.0300 
832.891;0.2632;0.9590;-0.0269;0.0000;0.0000;0.0000;97.1027;-17.2540;-102.9694;35.0300 
832.891;0.2632;0.9590;-0.0269;0.0000;0.0000;0.0000;97.0862;-17.2485;-102.9858;35.0900 
832.891;0.2632;0.9590;-0.0269;0.0000;0.0000;0.0000;97.0697;-17.2430;-103.0023;35.0900 
832.891;0.2632;0.9590;-0.0269;0.0000;0.0000;0.0000;97.0587;-17.2375;-103.0133;35.0400 
832.891;0.2632;0.9590;-0.0269;0.0000;0.0000;0.0000;97.0422;-17.2266;-103.0298;35.0400 
832.891;0.2632;0.9590;-0.0269;0.0000;0.0000;0.0000;97.0258;-17.2211;-103.0463;35.0500 
832.891;0.2632;0.9590;-0.0269;0.0000;0.0000;0.0000;97.0093;-17.2156;-103.0627;35.0500 
832.891;0.2632;0.9590;-0.0269;0.0000;0.0000;0.0000;96.9928;-17.2101;-103.0792;35.0500 
832.891;0.2632;0.9590;-0.0269;0.0000;0.0000;0.0000;96.9763;-17.2046;-103.0957;35.0600 
832.891;0.2632;0.9590;-0.0269;0.0000;0.0000;0.0000;96.9598;-17.1991;-103.1122;35.0600 
832.921;0.2627;0.9590;-0.0269;0.0000;0.0000;0.0000;96.9434;-17.1881;-103.1287;35.0900 
832.921;0.2627;0.9590;-0.0269;0.0000;0.0000;0.0000;96.9269;-17.1826;-103.1451;35.0900 
832.941;0.2627;0.9590;-0.0269;0.0000;0.0000;0.0000;96.9104;-17.1771;-103.1561;35.0500 
832.961;0.2627;0.9590;-0.0269;0.0000;0.0000;0.0000;96.8994;-17.1716;-103.1726;35.0500 
832.961;0.2627;0.9590;-0.0269;0.0000;0.0000;0.0000;96.8829;-17.1661;-103.1891;35.0500 
832.961;0.2627;0.9590;-0.0269;0.0000;0.0000;0.0000;96.8665;-17.1606;-103.2056;35.0500 
832.981;0.2627;0.9590;-0.0269;0.0000;0.0000;0.0000;96.8500;-17.1552;-103.2166;35.0500 
832.981;0.2627;0.9590;-0.0269;0.0000;0.0000;0.0000;96.8335;-17.1442;-103.2330;35.0500 
832.981;0.2627;0.9590;-0.0269;0.0000;0.0000;0.0000;96.8170;-17.1387;-103.2495;35.0200 
833.061;0.2627;0.9590;-0.0269;0.0000;0.0000;0.0000;96.8060;-17.1332;-103.2660;35.0200 
833.061;0.2627;0.9590;-0.0269;0.0000;0.0000;0.0000;96.7896;-17.1277;-103.2825;35.0900 
833.081;0.2627;0.9590;-0.0269;0.0000;0.0000;0.0000;96.7731;-17.1222;-103.2990;35.0900 
833.081;0.2627;0.9590;-0.0269;0.0000;0.0000;0.0000;96.7566;-17.1167;-103.3154;35.0900 
833.081;0.2627;0.9590;-0.0269;0.0000;0.0000;0.0000;96.7401;-17.1112;-103.3319;35.0900 
833.081;0.2627;0.9590;-0.0269;0.0000;0.0000;0.0000;96.7291;-17.1057;-103.3484;35.0900 
833.081;0.2627;0.9590;-0.0269;0.0000;0.0000;0.0000;96.7126;-17.1002;-103.3649;35.0500 
833.081;0.2622;0.9595;-0.0269;0.0000;0.0000;0.0000;96.6962;-17.0892;-103.3759;35.0500 
833.081;0.2622;0.9595;-0.0269;0.0000;0.0000;0.0000;96.6797;-17.0837;-103.3923;35.0600 
833.081;0.2622;0.9595;-0.0269;0.0000;0.0000;0.0000;96.6687;-17.0782;-103.4088;35.0600 
833.091;0.2622;0.9595;-0.0269;0.0000;0.0000;0.0000;96.6522;-17.0728;-103.4253;34.9900 
833.091;0.2622;0.9595;-0.0269;0.0000;0.0000;0.0000;96.6357;-17.0673;-103.4363;34.9900 
833.091;0.2622;0.9595;-0.0269;0.0000;0.0000;0.0000;96.6193;-17.0618;-103.4528;34.9900 
833.091;0.2622;0.9595;-0.0269;0.0000;0.0000;0.0000;96.6083;-17.0563;-103.4637;34.9900 
833.171;0.2622;0.9595;-0.0269;0.0000;0.0000;0.0000;96.5918;-17.0508;-103.4802;35.0400 
833.171;0.2622;0.9590;-0.0264;0.0000;0.0000;0.0000;96.5753;-17.0453;-103.4967;35.0400 
833.171;0.2622;0.9590;-0.0264;0.0000;0.0000;0.0000;96.5643;-17.0398;-103.5077;35.0700 
833.171;0.2622;0.9590;-0.0264;0.0000;0.0000;0.0000;96.5479;-17.0288;-103.5242;35.0700 
833.251;0.2622;0.9590;-0.0264;0.0000;0.0000;0.0000;96.5314;-17.0233;-103.5406;35.0400 
833.251;0.2622;0.9590;-0.0264;0.0000;0.0000;0.0000;96.5204;-17.0178;-103.5516;35.0400 
833.251;0.2622;0.9590;-0.0264;0.0000;0.0000;0.0000;96.5039;-17.0123;-103.5681;35.0400 
833.271;0.2622;0.9590;-0.0264;0.0000;0.0000;0.0000;96.4874;-17.0068;-103.5791;35.0500 
833.271;0.2622;0.9590;-0.0264;0.0000;0.0000;0.0000;96.4764;-17.0013;-103.5956;35.0500 
833.271;0.2617;0.9590;-0.0264;0.0000;0.0000;0.0000;96.4600;-16.9958;-103.6066;35.1300 
833.271;0.2617;0.9590;-0.0264;0.0000;0.0000;0.0000;96.4435;-16.9904;-103.6230;35.1300 
833.271;0.2617;0.9590;-0.0264;0.0000;0.0000;0.0000;96.4325;-16.9849;-103.6340;35.1000 
833.271;0.2617;0.9590;-0.0264;0.0000;0.0000;0.0000;96.4160;-16.9794;-103.6505;35.1000 
833.271;0.2617;0.9590;-0.0264;0.0000;0.0000;0.0000;96.4050;-16.9739;-103.6615;35.1300 
833.271;0.2617;0.9590;-0.0264;0.0000;0.0000;0.0000;96.3885;-16.9684;-103.6780;35.1300 
833.271;0.2617;0.9590;-0.0264;0.0000;0.0000;0.0000;96.3721;-16.9629;-103.6945;35.0800 
833.271;0.2617;0.9590;-0.0264;0.0000;0.0000;0.0000;96.3611;-16.9574;-103.7054;35.0800 
833.271;0.2617;0.9590;-0.0269;0.0000;0.0000;0.0000;96.3446;-16.9519;-103.7164;35.1000 
833.271;0.2617;0.9590;-0.0269;0.0000;0.0000;0.0000;96.3336;-16.9464;-103.7329;35.1000 
833.271;0.2617;0.9590;-0.0269;0.0000;0.0000;0.0000;96.3171;-16.9409;-103.7494;35.0600 
833.271;0.2617;0.9590;-0.0269;0.0000;0.0000;0.0000;96.3007;-16.9354;-103.7604;35.0600 
833.271;0.2617;0.9590;-0.0269;0.0000;0.0000;0.0000;96.2897;-16.9299;-103.7714;35.0600 
833.271;0.2617;0.9590;-0.0269;0.0000;0.0000;0.0000;96.2732;-16.9244;-103.7878;35.0600 
833.291;0.2617;0.9590;-0.0269;0.0000;0.0000;0.0000;96.2622;-16.9189;-103.7988;35.0600 
833.291;0.2617;0.9590;-0.0269;0.0000;0.0000;0.0000;96.2457;-16.9135;-103.8098;35.0400 
833.291;0.2622;0.9585;-0.0269;0.0000;0.0000;0.0000;96.2347;-16.9080;-103.8263;35.0400 
833.291;0.2622;0.9585;-0.0269;0.0000;0.0000;0.0000;96.2183;-16.9025;-103.8373;35.1000 
833.301;0.2622;0.9585;-0.0269;0.0000;0.0000;0.0000;96.2073;-16.8970;-103.8538;35.1000 
833.301;0.2622;0.9585;-0.0269;0.0000;0.0000;0.0000;96.1908;-16.8915;-103.8647;35.1200 
833.301;0.2622;0.9585;-0.0269;0.0000;0.0000;0.0000;96.1798;-16.8860;-103.8757;35.1200 
833.301;0.2622;0.9585;-0.0269;0.0000;0.0000;0.0000;96.1633;-16.8805;-103.8922;35.0600 
833.321;0.2622;0.9585;-0.0269;0.0000;0.0000;0.0000;96.1523;-16.8750;-103.9032;35.0600 
833.321;0.2622;0.9585;-0.0269;0.0000;0.0000;0.0000;96.1414;-16.8695;-103.9142;35.0300 
833.321;0.2622;0.9585;-0.0273;0.0000;0.0000;0.0000;96.1249;-16.8640;-103.9307;35.0300 
833.331;0.2622;0.9585;-0.0273;0.0000;0.0000;0.0000;96.1139;-16.8585;-103.9417;35.0700 
833.331;0.2622;0.9585;-0.0273;0.0000;0.0000;0.0000;96.0974;-16.8530;-103.9526;35.0700 
833.331;0.2622;0.9585;-0.0273;0.0000;0.0000;0.0000;96.0864;-16.8475;-103.9691;35.0400 
833.331;0.2622;0.9585;-0.0273;0.0000;0.0000;0.0000;96.0699;-16.8420;-103.9801;35.0400 
833.361;0.2622;0.9585;-0.0273;0.0000;0.0000;0.0000;96.0590;-16.8365;-103.9911;35.0700 
833.361;0.2622;0.9585;-0.0273;0.0000;0.0000;0.0000;96.0480;-16.8311;-104.0021;35.0700 
833.361;0.2622;0.9585;-0.0273;0.0000;0.0000;0.0000;96.0315;-16.8256;-104.0186;35.0700 
833.361;0.2627;0.9585;-0.0273;0.0000;0.0000;0.0000;96.0205;-16.8256;-104.0295;35.0200 
833.451;0.2627;0.9585;-0.0273;0.0000;0.0000;0.0000;96.0095;-16.8201;-104.0405;35.0200 
833.451;0.2627;0.9585;-0.0273;0.0000;0.0000;0.0000;95.9930;-16.8146;-104.0515;35.0800 
833.451;0.2627;0.9585;-0.0273;0.0000;0.0000;0.0000;95.9821;-16.8091;-104.0625;35.0800 
833.451;0.2627;0.9585;-0.0273;0.0000;0.0000;0.0000;95.9656;-16.8036;-104.0735;35.0800 
833.461;0.2627;0.9585;-0.0273;0.0000;0.0000;0.0000;95.9546;-16.7981;-104.0845;35.0800 
833.461;0.2627;0.9585;-0.0273;0.0000;0.0000;0.0000;95.9436;-16.7926;-104.0955;35.1100 
833.461;0.2627;0.9585;-0.0273;0.0000;0.0000;0.0000;95.9271;-16.7871;-104.1064;35.1100 
833.461;0.2627;0.9585;-0.0273;0.0000;0.0000;0.0000;95.9161;-16.7816;-104.1229;35.1100 
833.461;0.2627;0.9585;-0.0273;0.0000;0.0000;0.0000;95.9052;-16.7761;-104.1339;35.1100 
833.461;0.2627;0.9585;-0.0273;0.0000;0.0000;0.0000;95.8887;-16.7761;-104.1449;35.1200 
833.461;0.2627;0.9585;-0.0273;0.0000;0.0000;0.0000;95.8777;-16.7706;-104.1559;35.1200 
833.461;0.2627;0.9585;-0.0273;0.0000;0.0000;0.0000;95.8667;-16.7651;-104.1669;35.1200 
833.461;0.2627;0.9585;-0.0273;0.0000;0.0000;0.0000;95.8557;-16.7596;-104.1779;35.1200 
833.461;0.2627;0.9585;-0.0273;0.0000;0.0000;0.0000;95.8392;-16.7542;-104.1888;35.1200 
833.461;0.2627;0.9585;-0.0273;0.0000;0.0000;0.0000;95.8282;-16.7487;-104.1998;35.0300 
833.461;0.2627;0.9585;-0.0273;0.0000;0.0000;0.0000;95.8173;-16.7432;-104.2108;35.0300 
833.461;0.2627;0.9585;-0.0273;0.0000;0.0000;0.0000;95.8008;-16.7432;-104.2163;35.0800 
833.461;0.2627;0.9585;-0.0273;0.0000;0.0000;0.0000;95.7898;-16.7377;-104.2273;35.0800 
833.471;0.2627;0.9585;-0.0273;0.0000;0.0000;0.0000;95.7788;-16.7322;-104.2383;35.0500 
833.471;0.2627;0.9585;-0.0273;0.0000;0.0000;0.0000;95.7678;-16.7267;-104.2493;35.0500 
833.471;0.2627;0.9585;-0.0273;0.0000;0.0000;0.0000;95.7513;-16.7212;-104.2603;35.0800 
833.471;0.2627;0.9585;-0.0273;0.0000;0.0000;0.0000;95.7404;-16.7157;-104.2712;35.0800 
833.501;0.2627;0.9585;-0.0273;0.0000;0.0000;0.0000;95.7294;-16.7157;-104.2767;35.0400 
833.501;0.2627;0.9585;-0.0269;0.0000;0.0000;0.0000;95.7184;-16.7102;-104.2877;35.0400 
833.501;0.2627;0.9585;-0.0269;0.0000;0.0000;0.0000;95.7074;-16.7047;-104.2987;35.0700 
833.501;0.2627;0.9585;-0.0269;0.0000;0.0000;0.0000;95.6909;-16.6992;-104.3097;35.0700 
833.531;0.2627;0.9585;-0.0269;0.0000;0.0000;0.0000;95.6799;-16.6937;-104.3207;35.0200 
833.531;0.2627;0.9585;-0.0269;0.0000;0.0000;0.0000;95.6689;-16.6882;-104.3317;35.0200 
833.531;0.2627;0.9585;-0.0269;0.0000;0.0000;0.0000;95.6580;-16.6882;-104.3427;35.1200 
833.541;0.2627;0.9585;-0.0269;0.0000;0.0000;0.0000;95.6470;-16.6827;-104.3536;35.1200 
833.541;0.2627;0.9585;-0.0269;0.0000;0.0000;0.0000;95.6305;-16.6772;-104.3646;35.1200 
833.541;0.2627;0.9585;-0.0269;0.0000;0.0000;0.0000;95.6195;-16.6718;-104.3756;35.0100 
833.541;0.2627;0.9585;-0.0269;0.0000;0.0000;0.0000;95.6085;-16.6663;-104.3811;35.0100 
833.551;0.2627;0.9585;-0.0269;0.0000;0.0000;0.0000;95.5975;-16.6663;-104.3976;35.0800 
833.551;0.2627;0.9585;-0.0269;0.0000;0.0000;0.0000;95.5865;-16.6608;-104.4086;35.0800 
833.551;0.2627;0.9585;-0.0269;0.0000;0.0000;0.0000;95.5701;-16.6553;-104.4196;35.0700 
833.551;0.2627;0.9585;-0.0269;0.0000;0.0000;0.0000;95.5591;-16.6498;-104.4305;35.0700 
833.651;0.2627;0.9585;-0.0269;0.0000;0.0000;0.0000;95.5481;-16.6443;-104.4415;35.1200 
833.651;0.2627;0.9585;-0.0269;0.0000;0.0000;0.0000;95.5371;-16.6443;-104.4525;35.1200 
833.651;0.2622;0.9585;-0.0269;0.0000;0.0000;0.0000;95.5261;-16.6388;-104.4580;35.1100 
833.651;0.2622;0.9585;-0.0269;0.0000;0.0000;0.0000;95.5151;-16.6333;-104.4745;35.1100 
833.661;0.2622;0.9585;-0.0269;0.0000;0.0000;0.0000;95.5042;-16.6278;-104.4800;35.0400 
833.661;0.2622;0.9585;-0.0269;0.0000;0.0000;0.0000;95.4932;-16.6223;-104.4910;35.0400 
833.661;0.2622;0.9585;-0.0269;0.0000;0.0000;0.0000;95.4767;-16.6223;-104.5020;35.0600 
833.661;0.2622;0.9585;-0.0269;0.0000;0.0000;0.0000;95.4657;-16.6168;-104.5129;35.0600 
833.661;0.2622;0.9585;-0.0269;0.0000;0.0000;0.0000;95.4547;-16.6113;-104.5239;35.0900 
833.661;0.2622;0.9585;-0.0269;0.0000;0.0000;0.0000;95.4437;-16.6058;-104.5404;35.0900 
833.661;0.2622;0.9590;-0.0269;0.0000;0.0000;0.0000;95.4327;-16.6003;-104.5514;35.0900 
833.661;0.2622;0.9590;-0.0269;0.0000;0.0000;0.0000;95.4218;-16.6003;-104.5624;35.1100 
833.661;0.2622;0.9590;-0.0269;0.0000;0.0000;0.0000;95.4108;-16.5948;-104.5734;35.1100 
833.661;0.2622;0.9590;-0.0269;0.0000;0.0000;0.0000;95.3998;-16.5894;-104.5844;35.0900 
833.661;0.2622;0.9590;-0.0269;0.0000;0.0000;0.0000;95.3888;-16.5839;-104.5953;35.0900 
833.661;0.2622;0.9590;-0.0269;0.0000;0.0000;0.0000;95.3778;-16.5784;-104.6063;35.0800 
833.661;0.2622;0.9590;-0.0269;0.0000;0.0000;0.0000;95.3668;-16.5784;-104.6173;35.0800 
833.661;0.2622;0.9590;-0.0269;0.0000;0.0000;0.0000;95.3558;-16.5729;-104.6283;35.1000 
833.661;0.2617;0.9590;-0.0269;0.0000;0.0000;0.0000;95.3448;-16.5674;-104.6393;35.1000 
833.681;0.2617;0.9590;-0.0269;0.0000;0.0000;0.0000;95.3339;-16.5619;-104.6503;35.0800 
833.681;0.2617;0.9590;-0.0269;0.0000;0.0000;0.0000;95.3229;-16.5619;-104.6613;35.0800 
833.681;0.2617;0.9590;-0.0269;0.0000;0.0000;0.0000;95.3119;-16.5564;-104.6722;35.0800 
833.681;0.2617;0.9590;-0.0269;0.0000;0.0000;0.0000;95.3009;-16.5509;-104.6777;35.0800 
833.681;0.2617;0.9590;-0.0269;0.0000;0.0000;0.0000;95.2899;-16.5454;-104.6887;35.1000 
833.681;0.2617;0.9590;-0.0269;0.0000;0.0000;0.0000;95.2789;-16.5399;-104.6997;35.1000 
833.681;0.2617;0.9590;-0.0269;0.0000;0.0000;0.0000;95.2679;-16.5399;-104.7107;35.0700 
833.681;0.2622;0.9590;-0.0269;0.0000;0.0000;0.0000;95.2570;-16.5344;-104.7217;35.0700 
833.691;0.2622;0.9590;-0.0269;0.0000;0.0000;0.0000;95.2460;-16.5289;-104.7327;35.0700 
833.691;0.2622;0.9590;-0.0269;0.0000;0.0000;0.0000;95.2350;-16.5289;-104.7437;35.0900 
833.691;0.2622;0.9590;-0.0269;0.0000;0.0000;0.0000;95.2240;-16.5234;-104.7491;35.0900 
833.691;0.2622;0.9590;-0.0269;0.0000;0.0000;0.0000;95.2130;-16.5179;-104.7601;35.0600 
833.701;0.2622;0.9590;-0.0269;0.0000;0.0000;0.0000;95.2020;-16.5125;-104.7711;35.0600 
833.701;0.2622;0.9590;-0.0269;0.0000;0.0000;0.0000;95.1910;-16.5125;-104.7821;35.1200 
833.701;0.2622;0.9590;-0.0269;0.0000;0.0000;0.0000;95.1801;-16.5070;-104.7931;35.1200 
833.701;0.2622;0.9590;-0.0273;0.0000;0.0000;0.0000;95.1691;-16.5015;-104.7986;35.0700 
833.731;0.2622;0.9590;-0.0273;0.0000;0.0000;0.0000;95.1581;-16.4960;-104.8096;35.0700 
833.731;0.2622;0.9590;-0.0273;0.0000;0.0000;0.0000;95.1471;-16.4960;-104.8206;35.0600 
833.731;0.2622;0.9590;-0.0273;0.0000;0.0000;0.0000;95.1361;-16.4905;-104.8315;35.0600 
833.731;0.2622;0.9590;-0.0273;0.0000;0.0000;0.0000;95.1251;-16.4850;-104.8370;35.1000 
833.771;0.2622;0.9590;-0.0273;0.0000;0.0000;0.0000;95.1196;-16.4850;-104.8480;35.1000 
833.771;0.2622;0.9590;-0.0273;0.0000;0.0000;0.0000;95.1086;-16.4795;-104.8590;35.0500 
833.771;0.2622;0.9590;-0.0273;0.0000;0.0000;0.0000;95.0977;-16.4740;-104.8645;35.0500 
833.791;0.2627;0.9590;-0.0273;0.0000;0.0000;0.0000;95.0867;-16.4685;-104.8755;35.0500 
833.791;0.2627;0.9590;-0.0273;0.0000;0.0000;0.0000;95.0757;-16.4685;-104.8810;35.0600 
833.791;0.2627;0.9590;-0.0273;0.0000;0.0000;0.0000;95.0647;-16.4630;-104.8920;35.0600 
833.791;0.2627;0.9590;-0.0273;0.0000;0.0000;0.0000;95.0537;-16.4575;-104.9030;35.0500 
834.031;0.2627;0.9590;-0.0273;0.0000;0.0000;0.0000;95.0427;-16.4575;-104.9084;35.0500 
834.031;0.2627;0.9590;-0.0273;0.0000;0.0000;0.0000;95.0372;-16.4520;-104.9194;35.1200 
834.031;0.2627;0.9590;-0.0273;0.0000;0.0000;0.0000;95.0262;-16.4465;-104.9304;35.1200 
834.031;0.2627;0.9590;-0.0273;0.0000;0.0000;0.0000;95.0153;-16.4465;-104.9359;35.0600 
834.051;0.2627;0.9590;-0.0273;0.0000;0.0000;0.0000;95.0043;-16.4410;-104.9469;35.0600 
834.051;0.2627;0.9590;-0.0273;0.0000;0.0000;0.0000;94.9933;-16.4355;-104.9524;35.0300 
834.051;0.2627;0.9590;-0.0273;0.0000;0.0000;0.0000;94.9823;-16.4355;-104.9634;35.0300 
834.051;0.2627;0.9590;-0.0273;0.0000;0.0000;0.0000;94.9768;-16.4301;-104.9689;35.1100 
834.051;0.2627;0.9590;-0.0273;0.0000;0.0000;0.0000;94.9658;-16.4246;-104.9799;35.1100 
834.051;0.2627;0.9590;-0.0273;0.0000;0.0000;0.0000;94.9548;-16.4246;-104.9854;35.0900 
834.051;0.2627;0.9590;-0.0273;0.0000;0.0000;0.0000;94.9438;-16.4191;-104.9963;35.0900 
834.051;0.2627;0.9590;-0.0273;0.0000;0.0000;0.0000;94.9329;-16.4136;-105.0018;35.1000 
834.051;0.2627;0.9585;-0.0273;0.0000;0.0000;0.0000;94.9274;-16.4136;-105.0128;35.1000 
834.051;0.2627;0.9585;-0.0273;0.0000;0.0000;0.0000;94.9164;-16.4081;-105.0238;35.1000 
834.051;0.2627;0.9585;-0.0273;0.0000;0.0000;0.0000;94.9054;-16.4026;-105.0348;35.0400 
834.051;0.2627;0.9585;-0.0273;0.0000;0.0000;0.0000;94.8944;-16.4026;-105.0458;35.0400 
834.051;0.2627;0.9585;-0.0273;0.0000;0.0000;0.0000;94.8834;-16.3971;-105.0513;35.0200 
834.051;0.2627;0.9585;-0.0273;0.0000;0.0000;0.0000;94.8779;-16.3971;-105.0623;35.0200 
834.051;0.2627;0.9585;-0.0273;0.0000;0.0000;0.0000;94.8669;-16.3916;-105.0732;35.0700 
834.051;0.2627;0.9585;-0.0273;0.0000;0.0000;0.0000;94.8560;-16.3861;-105.0842;35.0700 
834.051;0.2632;0.9585;-0.0269;0.0000;0.0000;0.0000;94.8450;-16.3861;-105.0897;35.0200 
834.051;0.2632;0.9585;-0.0269;0.0000;0.0000;0.0000;94.8395;-16.3806;-105.1007;35.0200 
834.051;0.2632;0.9585;-0.0269;0.0000;0.0000;0.0000;94.8285;-16.3751;-105.1117;35.0300 
834.051;0.2632;0.9585;-0.0269;0.0000;0.0000;0.0000;94.8175;-16.3751;-105.1172;35.0300 
834.051;0.2632;0.9585;-0.0269;0.0000;0.0000;0.0000;94.8065;-16.3696;-105.1282;35.1100 
834.051;0.2632;0.9585;-0.0269;0.0000;0.0000;0.0000;94.8010;-16.3696;-105.1392;35.1100 
834.051;0.2632;0.9585;-0.0269;0.0000;0.0000;0.0000;94.7900;-16.3641;-105.1447;35.0800 
834.051;0.2632;0.9585;-0.0269;0.0000;0.0000;0.0000;94.7791;-16.3586;-105.1556;35.0800 
834.051;0.2627;0.9585;-0.0269;0.0000;0.0000;0.0000;94.7736;-16.3586;-105.1666;35.0600 
834.051;0.2627;0.9585;-0.0269;0.0000;0.0000;0.0000;94.7626;-16.3531;-105.1721;35.0600 
834.051;0.2627;0.9585;-0.0269;0.0000;0.0000;0.0000;94.7516;-16.3531;-105.1831;35.0600 
834.071;0.2627;0.9585;-0.0269;0.0000;0.0000;0.0000;94.7406;-16.3477;-105.1886;35.0100 
834.071;0.2627;0.9585;-0.0269;0.0000;0.0000;0.0000;94.7351;-16.3422;-105.1996;35.0100 
834.071;0.2627;0.9585;-0.0269;0.0000;0.0000;0.0000;94.7241;-16.3422;-105.2051;35.1000 
834.071;0.2627;0.9585;-0.0269;0.0000;0.0000;0.0000;94.7131;-16.3367;-105.2161;35.1000 
834.101;0.2627;0.9585;-0.0269;0.0000;0.0000;0.0000;94.7076;-16.3367;-105.2216;35.0800 
834.101;0.2627;0.9585;-0.0269;0.0000;0.0000;0.0000;94.6967;-16.3312;-105.2325;35.0800 
834.101;0.2627;0.9585;-0.0269;0.0000;0.0000;0.0000;94.6857;-16.3257;-105.2380;35.0200 
834.101;0.2627;0.9585;-0.0269;0.0000;0.0000;0.0000;94.6802;-16.3257;-105.2435;35.0200 
834.111;0.2627;0.9585;-0.0269;0.0000;0.0000;0.0000;94.6692;-16.3202;-105.2545;35.0500 
834.111;0.2627;0.9585;-0.0269;0.0000;0.0000;0.0000;94.6582;-16.3202;-105.2600;35.0500 
834.111;0.2627;0.9585;-0.0269;0.0000;0.0000;0.0000;94.6527;-16.3147;-105.2710;35.0900 
834.111;0.2627;0.9585;-0.0269;0.0000;0.0000;0.0000;94.6417;-16.3092;-105.2820;35.0900 
834.131;0.2627;0.9585;-0.0269;0.0000;0.0000;0.0000;94.6307;-16.3092;-105.2875;35.0600 
834.131;0.2622;0.9590;-0.0269;0.0000;0.0000;0.0000;94.6252;-16.3037;-105.2985;35.0600 
834.131;0.2622;0.9590;-0.0269;0.0000;0.0000;0.0000;94.6143;-16.3037;-105.3040;35.1100 
834.151;0.2622;0.9590;-0.0269;0.0000;0.0000;0.0000;94.6033;-16.2982;-105.3149;35.1100 
834.151;0.2622;0.9590;-0.0269;0.0000;0.0000;0.0000;94.5978;-16.2927;-105.3204;35.1100 
834.151;0.2622;0.9590;-0.0269;0.0000;0.0000;0.0000;94.5868;-16.2927;-105.3314;35.0500 
834.151;0.2622;0.9590;-0.0269;0.0000;0.0000;0.0000;94.5813;-16.2872;-105.3369;35.0500 
834.240;0.2622;0.9590;-0.0269;0.0000;0.0000;0.0000;94.5703;-16.2872;-105.3479;35.1200 
834.240;0.2622;0.9590;-0.0269;0.0000;0.0000;0.0000;94.5593;-16.2817;-105.3534;35.1200 
834.240;0.2622;0.9590;-0.0273;0.0000;0.0000;0.0000;94.5538;-16.2762;-105.3589;35.0700 
834.240;0.2622;0.9590;-0.0273;0.0000;0.0000;0.0000;94.5428;-16.2762;-105.3699;35.0700 
834.251;0.2622;0.9590;-0.0273;0.0000;0.0000;0.0000;94.5374;-16.2708;-105.3754;35.1300 
834.251;0.2622;0.9590;-0.0273;0.0000;0.0000;0.0000;94.5264;-16.2708;-105.3809;35.1300 
834.251;0.2622;0.9590;-0.0273;0.0000;0.0000;0.0000;94.5154;-16.2653;-105.3918;35.1400 
834.251;0.2622;0.9590;-0.0273;0.0000;0.0000;0.0000;94.5099;-16.2653;-105.3973;35.1400 
834.251;0.2622;0.9590;-0.0273;0.0000;0.0000;0.0000;94.4989;-16.2598;-105.4083;35.0800 
834.251;0.2622;0.9590;-0.0273;0.0000;0.0000;0.0000;94.4934;-16.2543;-105.4138;35.0800 
834.251;0.2622;0.9590;-0.0278;0.0000;0.0000;0.0000;94.4824;-16.2543;-105.4248;35.0900 
834.251;0.2622;0.9590;-0.0278;0.0000;0.0000;0.0000;94.4769;-16.2488;-105.4303;35.0900 
834.251;0.2622;0.9590;-0.0278;0.0000;0.0000;0.0000;94.4659;-16.2488;-105.4413;35.0900 
834.251;0.2622;0.9590;-0.0278;0.0000;0.0000;0.0000;94.4604;-16.2433;-105.4523;34.9800 
834.251;0.2622;0.9590;-0.0278;0.0000;0.0000;0.0000;94.4495;-16.2433;-105.4578;34.9800 
834.251;0.2622;0.9590;-0.0278;0.0000;0.0000;0.0000;94.4440;-16.2378;-105.4688;35.0700 
834.270;0.2622;0.9590;-0.0278;0.0000;0.0000;0.0000;94.4330;-16.2323;-105.4797;35.0700 
834.270;0.2622;0.9590;-0.0278;0.0000;0.0000;0.0000;94.4275;-16.2323;-105.4852;35.0800 
834.270;0.2622;0.9590;-0.0278;0.0000;0.0000;0.0000;94.4165;-16.2268;-105.4962;35.0800 
834.270;0.2622;0.9590;-0.0278;0.0000;0.0000;0.0000;94.4110;-16.2268;-105.5017;35.0200 
834.270;0.2622;0.9590;-0.0278;0.0000;0.0000;0.0000;94.4000;-16.2213;-105.5127;35.0200 
834.270;0.2622;0.9590;-0.0278;0.0000;0.0000;0.0000;94.3945;-16.2213;-105.5182;35.1000 
834.270;0.2622;0.9590;-0.0278;0.0000;0.0000;0.0000;94.3835;-16.2158;-105.5292;35.1000 
834.270;0.2622;0.9590;-0.0278;0.0000;0.0000;0.0000;94.3781;-16.2158;-105.5347;35.1000 
834.270;0.2622;0.9590;-0.0278;0.0000;0.0000;0.0000;94.3671;-16.2103;-105.5457;35.1000 
834.270;0.2622;0.9590;-0.0278;0.0000;0.0000;0.0000;94.3616;-16.2048;-105.5511;35.1100 
834.270;0.2627;0.9590;-0.0278;0.0000;0.0000;0.0000;94.3506;-16.2048;-105.5621;35.1100 
834.281;0.2627;0.9590;-0.0278;0.0000;0.0000;0.0000;94.3451;-16.1993;-105.5676;35.0400 
834.281;0.2627;0.9590;-0.0278;0.0000;0.0000;0.0000;94.3341;-16.1993;-105.5731;35.0400 
834.281;0.2627;0.9590;-0.0278;0.0000;0.0000;0.0000;94.3286;-16.1938;-105.5786;35.0400 
834.281;0.2627;0.9590;-0.0278;0.0000;0.0000;0.0000;94.3176;-16.1938;-105.5896;35.0700 
834.370;0.2627;0.9590;-0.0278;0.0000;0.0000;0.0000;94.3121;-16.1884;-105.5951;35.0700 
834.370;0.2627;0.9590;-0.0278;0.0000;0.0000;0.0000;94.3066;-16.1884;-105.6006;35.0700 
834.370;0.2627;0.9590;-0.0278;0.0000;0.0000;0.0000;94.2957;-16.1829;-105.6061;35.0700 
834.370;0.2627;0.9590;-0.0278;0.0000;0.0000;0.0000;94.2902;-16.1829;-105.6116;35.0600 
834.370;0.2627;0.9590;-0.0278;0.0000;0.0000;0.0000;94.2792;-16.1774;-105.6226;35.0600 
834.370;0.2627;0.9590;-0.0278;0.0000;0.0000;0.0000;94.2737;-16.1774;-105.6281;35.1000 
834.370;0.2627;0.9590;-0.0278;0.0000;0.0000;0.0000;94.2627;-16.1719;-105.6335;35.1000 
834.370;0.2627;0.9590;-0.0278;0.0000;0.0000;0.0000;94.2572;-16.1719;-105.6390;35.0900 
834.370;0.2627;0.9590;-0.0278;0.0000;0.0000;0.0000;94.2517;-16.1664;-105.6445;35.0900 
834.370;0.2627;0.9590;-0.0278;0.0000;0.0000;0.0000;94.2407;-16.1664;-105.6555;35.0700 
834.370;0.2627;0.9590;-0.0278;0.0000;0.0000;0.0000;94.2352;-16.1609;-105.6610;35.0700 
834.370;0.2627;0.9590;-0.0273;0.0000;0.0000;0.0000;94.2242;-16.1609;-105.6665;35.0200 
834.390;0.2627;0.9590;-0.0273;0.0000;0.0000;0.0000;94.2188;-16.1554;-105.6775;35.0200 
834.390;0.2627;0.9590;-0.0273;0.0000;0.0000;0.0000;94.2133;-16.1554;-105.6830;35.0800 
834.390;0.2627;0.9590;-0.0273;0.0000;0.0000;0.0000;94.2023;-16.1499;-105.6885;35.0800 
834.390;0.2627;0.9590;-0.0273;0.0000;0.0000;0.0000;94.1968;-16.1499;-105.6940;35.0800 
834.390;0.2627;0.9590;-0.0273;0.0000;0.0000;0.0000;94.1858;-16.1444;-105.7050;35.0700 
834.390;0.2627;0.9590;-0.0273;0.0000;0.0000;0.0000;94.1803;-16.1444;-105.7104;35.0700 
834.390;0.2627;0.9590;-0.0273;0.0000;0.0000;0.0000;94.1748;-16.1389;-105.7214;35.1100 
834.390;0.2627;0.9590;-0.0273;0.0000;0.0000;0.0000;94.1638;-16.1389;-105.7269;35.1100 
834.390;0.2627;0.9590;-0.0273;0.0000;0.0000;0.0000;94.1583;-16.1334;-105.7324;35.1700 
834.390;0.2627;0.9590;-0.0273;0.0000;0.0000;0.0000;94.1473;-16.1334;-105.7379;35.1700 
834.390;0.2627;0.9590;-0.0273;0.0000;0.0000;0.0000;94.1418;-16.1279;-105.7489;35.0600 
834.390;0.2627;0.9590;-0.0273;0.0000;0.0000;0.0000;94.1364;-16.1279;-105.7544;35.0600 
834.390;0.2627;0.9590;-0.0273;0.0000;0.0000;0.0000;94.1254;-16.1279;-105.7654;35.0500 
834.390;0.2627;0.9590;-0.0273;0.0000;0.0000;0.0000;94.1199;-16.1224;-105.7709;35.0500 
834.390;0.2627;0.9590;-0.0273;0.0000;0.0000;0.0000;94.1144;-16.1224;-105.7764;35.0400 
834.390;0.2622;0.9585;-0.0273;0.0000;0.0000;0.0000;94.1034;-16.1169;-105.7874;35.0400 
834.390;0.2622;0.9585;-0.0273;0.0000;0.0000;0.0000;94.0979;-16.1169;-105.7928;35.0600 
834.390;0.2622;0.9585;-0.0273;0.0000;0.0000;0.0000;94.0924;-16.1115;-105.8038;35.0600 
834.390;0.2622;0.9585;-0.0273;0.0000;0.0000;0.0000;94.0814;-16.1115;-105.8093;35.0500 
834.390;0.2622;0.9585;-0.0273;0.0000;0.0000;0.0000;94.0759;-16.1060;-105.8148;35.0500 
834.390;0.2622;0.9585;-0.0273;0.0000;0.0000;0.0000;94.0704;-16.1060;-105.8258;35.0500 
834.390;0.2622;0.9585;-0.0273;0.0000;0.0000;0.0000;94.0594;-16.1005;-105.8313;35.0800 
834.390;0.2622;0.9585;-0.0273;0.0000;0.0000;0.0000;94.0540;-16.1005;-105.8368;35.0800 
834.390;0.2617;0.9590;-0.0273;0.0000;0.0000;0.0000;94.0485;-16.0950;-105.8478;35.1100 
834.390;0.2617;0.9590;-0.0273;0.0000;0.0000;0.0000;94.0375;-16.0950;-105.8533;35.1100 
834.390;0.2617;0.9590;-0.0273;0.0000;0.0000;0.0000;94.0320;-16.0895;-105.8588;35.0600 
834.390;0.2617;0.9590;-0.0273;0.0000;0.0000;0.0000;94.0265;-16.0895;-105.8698;35.0600 
834.390;0.2617;0.9590;-0.0273;0.0000;0.0000;0.0000;94.0210;-16.0840;-105.8752;35.1500 
834.390;0.2617;0.9590;-0.0273;0.0000;0.0000;0.0000;94.0100;-16.0840;-105.8862;35.1500 
834.390;0.2617;0.9590;-0.0273;0.0000;0.0000;0.0000;94.0045;-16.0785;-105.8917;35.1100 
834.410;0.2617;0.9590;-0.0273;0.0000;0.0000;0.0000;93.9990;-16.0785;-105.8972;35.1100 
834.410;0.2612;0.9590;-0.0273;0.0000;0.0000;0.0000;93.9880;-16.0730;-105.9082;35.0500 
834.410;0.2612;0.9590;-0.0273;0.0000;0.0000;0.0000;93.9825;-16.0730;-105.9137;35.0500 
834.410;0.2612;0.9590;-0.0273;0.0000;0.0000;0.0000;93.9771;-16.0675;-105.9192;35.1100 
834.410;0.2612;0.9590;-0.0273;0.0000;0.0000;0.0000;93.9716;-16.0675;-105.9302;35.1100 
834.410;0.2612;0.9590;-0.0273;0.0000;0.0000;0.0000;93.9606;-16.0620;-105.9357;35.1100 
834.410;0.2612;0.9590;-0.0273;0.0000;0.0000;0.0000;93.9551;-16.0620;-105.9412;35.0800 
834.410;0.2612;0.9590;-0.0273;0.0000;0.0000;0.0000;93.9496;-16.0565;-105.9521;35.0800 
834.410;0.2612;0.9590;-0.0273;0.0000;0.0000;0.0000;93.9441;-16.0565;-105.9576;35.0700 
834.410;0.2612;0.9585;-0.0273;0.0000;0.0000;0.0000;93.9331;-16.0510;-105.9631;35.0700 
834.410;0.2612;0.9585;-0.0273;0.0000;0.0000;0.0000;93.9276;-16.0510;-105.9741;35.0700 
834.410;0.2612;0.9585;-0.0273;0.0000;0.0000;0.0000;93.9221;-16.0510;-105.9796;35.0700 
834.410;0.2612;0.9585;-0.0273;0.0000;0.0000;0.0000;93.9166;-16.0455;-105.9851;35.1000 
834.410;0.2612;0.9585;-0.0273;0.0000;0.0000;0.0000;93.9056;-16.0455;-105.9906;35.1000 
834.410;0.2612;0.9585;-0.0273;0.0000;0.0000;0.0000;93.9001;-16.0400;-106.0016;35.0700 
834.410;0.2612;0.9585;-0.0273;0.0000;0.0000;0.0000;93.8947;-16.0400;-106.0071;35.0700 
834.420;0.2612;0.9585;-0.0273;0.0000;0.0000;0.0000;93.8892;-16.0345;-106.0126;35.0500 
834.420;0.2612;0.9585;-0.0273;0.0000;0.0000;0.0000;93.8782;-16.0345;-106.0181;35.0500 
834.420;0.2612;0.9585;-0.0273;0.0000;0.0000;0.0000;93.8727;-16.0291;-106.0291;35.1000 
834.420;0.2612;0.9585;-0.0273;0.0000;0.0000;0.0000;93.8672;-16.0291;-106.0345;35.1000 
834.500;0.2612;0.9585;-0.0273;0.0000;0.0000;0.0000;93.8617;-16.0236;-106.0400;35.0400 
834.500;0.2612;0.9585;-0.0273;0.0000;0.0000;0.0000;93.8562;-16.0236;-106.0455;35.0400 
834.500;0.2612;0.9585;-0.0273;0.0000;0.0000;0.0000;93.8452;-16.0181;-106.0510;35.0400 
834.500;0.2612;0.9585;-0.0273;0.0000;0.0000;0.0000;93.8397;-16.0181;-106.0565;35.1100 
834.520;0.2612;0.9585;-0.0273;0.0000;0.0000;0.0000;93.8342;-16.0181;-106.0620;35.1100 
834.520;0.2612;0.9585;-0.0273;0.0000;0.0000;0.0000;93.8287;-16.0126;-106.0675;35.0200 
834.520;0.2612;0.9585;-0.0273;0.0000;0.0000;0.0000;93.8232;-16.0126;-106.0730;35.0200 
834.520;0.2612;0.9585;-0.0273;0.0000;0.0000;0.0000;93.8123;-16.0071;-106.0785;35.0500 
834.520;0.2612;0.9585;-0.0273;0.0000;0.0000;0.0000;93.8068;-16.0071;-106.0840;35.0500 
834.520;0.2612;0.9585;-0.0273;0.0000;0.0000;0.0000;93.8013;-16.0016;-106.0895;35.0400 
834.520;0.2612;0.9585;-0.0273;0.0000;0.0000;0.0000;93.7958;-16.0016;-106.0950;35.0400 
834.520;0.2612;0.9585;-0.0273;0.0000;0.0000;0.0000;93.7903;-15.9961;-106.1005;35.1100 
834.520;0.2612;0.9585;-0.0273;0.0000;0.0000;0.0000;93.7793;-15.9961;-106.1060;35.1100 
834.520;0.2617;0.9585;-0.0273;0.0000;0.0000;0.0000;93.7738;-15.9961;-106.1115;35.0500 
834.520;0.2617;0.9585;-0.0273;0.0000;0.0000;0.0000;93.7683;-15.9906;-106.1224;35.0500 
834.520;0.2617;0.9585;-0.0273;0.0000;0.0000;0.0000;93.7628;-15.9906;-106.1279;35.0500 
834.520;0.2617;0.9585;-0.0273;0.0000;0.0000;0.0000;93.7573;-15.9851;-106.1334;35.0500 
834.520;0.2617;0.9585;-0.0273;0.0000;0.0000;0.0000;93.7518;-15.9851;-106.1389;35.1100 
834.520;0.2617;0.9585;-0.0273;0.0000;0.0000;0.0000;93.7408;-15.9796;-106.1444;35.1100 
834.520;0.2617;0.9585;-0.0273;0.0000;0.0000;0.0000;93.7354;-15.9796;-106.1554;35.1100 
834.520;0.2617;0.9585;-0.0273;0.0000;0.0000;0.0000;93.7299;-15.9796;-106.1609;35.0400 
834.520;0.2622;0.9580;-0.0273;0.0000;0.0000;0.0000;93.7244;-15.9741;-106.1664;35.0400 
834.520;0.2622;0.9580;-0.0273;0.0000;0.0000;0.0000;93.7189;-15.9741;-106.1719;35.1100 
834.520;0.2622;0.9580;-0.0273;0.0000;0.0000;0.0000;93.7134;-15.9686;-106.1774;35.1100 
834.520;0.2622;0.9580;-0.0273;0.0000;0.0000;0.0000;93.7079;-15.9686;-106.1884;35.0800 
834.520;0.2622;0.9580;-0.0273;0.0000;0.0000;0.0000;93.7024;-15.9686;-106.1938;35.0800 
834.520;0.2622;0.9580;-0.0273;0.0000;0.0000;0.0000;93.6914;-15.9631;-106.1993;35.1100 
834.520;0.2622;0.9580;-0.0273;0.0000;0.0000;0.0000;93.6859;-15.9631;-106.1993;35.1100 
834.520;0.2622;0.9580;-0.0273;0.0000;0.0000;0.0000;93.6804;-15.9631;-106.2048;35.0500 
834.520;0.2627;0.9580;-0.0278;0.0000;0.0000;0.0000;93.6749;-15.9576;-106.2103;35.0500 
834.520;0.2627;0.9580;-0.0278;0.0000;0.0000;0.0000;93.6694;-15.9576;-106.2158;35.0800 
834.520;0.2627;0.9580;-0.0278;0.0000;0.0000;0.0000;93.6639;-15.9521;-106.2213;35.0800 
834.520;0.2627;0.9580;-0.0278;0.0000;0.0000;0.0000;93.6584;-15.9521;-106.2268;35.1400 
834.520;0.2627;0.9580;-0.0278;0.0000;0.0000;0.0000;93.6530;-15.9521;-106.2323;35.1400 
834.540;0.2627;0.9580;-0.0278;0.0000;0.0000;0.0000;93.6475;-15.9467;-106.2378;35.1100 
834.540;0.2627;0.9580;-0.0278;0.0000;0.0000;0.0000;93.6420;-15.9467;-106.2433;35.1100 
834.540;0.2627;0.9580;-0.0278;0.0000;0.0000;0.0000;93.6310;-15.9467;-106.2488;35.1100 
834.540;0.2622;0.9585;-0.0278;0.0000;0.0000;0.0000;93.6255;-15.9412;-106.2543;35.0800 
834.540;0.2622;0.9585;-0.0278;0.0000;0.0000;0.0000;93.6200;-15.9412;-106.2598;35.0800 
834.540;0.2622;0.9585;-0.0278;0.0000;0.0000;0.0000;93.6145;-15.9357;-106.2653;35.0500 
834.540;0.2622;0.9585;-0.0278;0.0000;0.0000;0.0000;93.6090;-15.9357;-106.2708;35.0500 
834.540;0.2622;0.9585;-0.0278;0.0000;0.0000;0.0000;93.6035;-15.9357;-106.2762;35.0900 
834.540;0.2622;0.9585;-0.0278;0.0000;0.0000;0.0000;93.5980;-15.9302;-106.2817;35.0900 
834.540;0.2622;0.9585;-0.0278;0.0000;0.0000;0.0000;93.5925;-15.9302;-106.2872;35.0200 
834.540;0.2622;0.9585;-0.0278;0.0000;0.0000;0.0000;93.5870;-15.9302;-106.2927;35.0200 
834.540;0.2627;0.9585;-0.0278;0.0000;0.0000;0.0000;93.5815;-15.9247;-106.2982;35.0500 
834.540;0.2627;0.9585;-0.0278;0.0000;0.0000;0.0000;93.5760;-15.9247;-106.3037;35.0500 
834.540;0.2627;0.9585;-0.0278;0.0000;0.0000;0.0000;93.5706;-15.9247;-106.3092;35.1000 
834.540;0.2627;0.9585;-0.0278;0.0000;0.0000;0.0000;93.5651;-15.9192;-106.3202;35.1000 
834.540;0.2627;0.9585;-0.0278;0.0000;0.0000;0.0000;93.5596;-15.9192;-106.3257;35.0800 
834.540;0.2627;0.9585;-0.0278;0.0000;0.0000;0.0000;93.5541;-15.9137;-106.3312;35.0800 
834.540;0.2627;0.9585;-0.0278;0.0000;0.0000;0.0000;93.5486;-15.9137;-106.3367;35.1100 
834.540;0.2627;0.9585;-0.0278;0.0000;0.0000;0.0000;93.5431;-15.9137;-106.3422;35.1100 
834.540;0.2622;0.9585;-0.0273;0.0000;0.0000;0.0000;93.5376;-15.9082;-106.3477;35.1100 
834.540;0.2622;0.9585;-0.0273;0.0000;0.0000;0.0000;93.5321;-15.9082;-106.3531;35.1100 
834.540;0.2622;0.9585;-0.0273;0.0000;0.0000;0.0000;93.5266;-15.9082;-106.3586;35.1100 
834.540;0.2622;0.9585;-0.0273;0.0000;0.0000;0.0000;93.5211;-15.9027;-106.3641;35.1000 
834.540;0.2622;0.9585;-0.0273;0.0000;0.0000;0.0000;93.5156;-15.9027;-106.3696;35.1000 
834.540;0.2622;0.9585;-0.0273;0.0000;0.0000;0.0000;93.5101;-15.9027;-106.3751;35.1200 
834.540;0.2622;0.9585;-0.0273;0.0000;0.0000;0.0000;93.5046;-15.8972;-106.3751;35.1200 
834.550;0.2622;0.9585;-0.0273;0.0000;0.0000;0.0000;93.4991;-15.8972;-106.3806;35.0900 
834.550;0.2622;0.9585;-0.0269;0.0000;0.0000;0.0000;93.4937;-15.8972;-106.3861;35.0900 
834.550;0.2622;0.9585;-0.0269;0.0000;0.0000;0.0000;93.4827;-15.8917;-106.3916;35.0200 
834.570;0.2622;0.9585;-0.0269;0.0000;0.0000;0.0000;93.4772;-15.8917;-106.3971;35.0200 
834.570;0.2622;0.9585;-0.0269;0.0000;0.0000;0.0000;93.4717;-15.8917;-106.4026;35.0400 
834.570;0.2622;0.9585;-0.0269;0.0000;0.0000;0.0000;93.4662;-15.8862;-106.4026;35.0400 
834.580;0.2622;0.9585;-0.0269;0.0000;0.0000;0.0000;93.4607;-15.8862;-106.4081;35.0500 
834.580;0.2622;0.9585;-0.0269;0.0000;0.0000;0.0000;93.4552;-15.8862;-106.4136;35.0500 
834.580;0.2622;0.9585;-0.0269;0.0000;0.0000;0.0000;93.4497;-15.8807;-106.4191;35.0500 
834.580;0.2617;0.9585;-0.0269;0.0000;0.0000;0.0000;93.4442;-15.8807;-106.4246;35.0600 
834.580;0.2617;0.9585;-0.0269;0.0000;0.0000;0.0000;93.4387;-15.8807;-106.4246;35.0600 
834.580;0.2617;0.9585;-0.0269;0.0000;0.0000;0.0000;93.4332;-15.8752;-106.4301;35.0600 
834.580;0.2617;0.9585;-0.0269;0.0000;0.0000;0.0000;93.4277;-15.8752;-106.4355;35.0600 
834.600;0.2617;0.9585;-0.0269;0.0000;0.0000;0.0000;93.4222;-15.8698;-106.4410;35.1100 
834.600;0.2617;0.9585;-0.0269;0.0000;0.0000;0.0000;93.4167;-15.8698;-106.4465;35.1100 
834.600;0.2617;0.9585;-0.0269;0.0000;0.0000;0.0000;93.4113;-15.8698;-106.4520;35.0800 
834.600;0.2617;0.9585;-0.0269;0.0000;0.0000;0.0000;93.4058;-15.8643;-106.4575;35.0800 
834.600;0.2617;0.9585;-0.0269;0.0000;0.0000;0.0000;93.4003;-15.8643;-106.4630;35.1700 
834.600;0.2617;0.9585;-0.0269;0.0000;0.0000;0.0000;93.3948;-15.8643;-106.4685;35.1700 
834.600;0.2617;0.9585;-0.0269;0.0000;0.0000;0.0000;93.3893;-15.8588;-106.4740;35.1000 
834.600;0.2617;0.9585;-0.0269;0.0000;0.0000;0.0000;93.3893;-15.8588;-106.4740;35.1000 
834.600;0.2617;0.9585;-0.0269;0.0000;0.0000;0.0000;93.3838;-15.8588;-106.4795;35.1100 
834.600;0.2617;0.9585;-0.0269;0.0000;0.0000;0.0000;93.3783;-15.8533;-106.4850;35.1100 
834.600;0.2617;0.9585;-0.0269;0.0000;0.0000;0.0000;93.3728;-15.8533;-106.4905;35.0800 
834.600;0.2617;0.9585;-0.0269;0.0000;0.0000;0.0000;93.3673;-15.8533;-106.4960;35.0800 
834.600;0.2617;0.9580;-0.0273;0.0000;0.0000;0.0000;93.3618;-15.8478;-106.5015;35.0800 
834.600;0.2617;0.9580;-0.0273;0.0000;0.0000;0.0000;93.3563;-15.8478;-106.5070;35.0800 
834.700;0.2617;0.9580;-0.0273;0.0000;0.0000;0.0000;93.3508;-15.8478;-106.5125;35.0800 
834.700;0.2617;0.9580;-0.0273;0.0000;0.0000;0.0000;93.3453;-15.8423;-106.5179;35.1500 
834.700;0.2617;0.9580;-0.0273;0.0000;0.0000;0.0000;93.3398;-15.8423;-106.5289;35.1500 
834.700;0.2617;0.9580;-0.0273;0.0000;0.0000;0.0000;93.3344;-15.8423;-106.5344;35.0500 
834.700;0.2617;0.9580;-0.0273;0.0000;0.0000;0.0000;93.3289;-15.8368;-106.5399;35.0500 
834.700;0.2617;0.9580;-0.0273;0.0000;0.0000;0.0000;93.3234;-15.8368;-106.5454;35.0500 
834.700;0.2617;0.9585;-0.0273;0.0000;0.0000;0.0000;93.3179;-15.8368;-106.5509;35.0500 
834.700;0.2617;0.9585;-0.0273;0.0000;0.0000;0.0000;93.3124;-15.8313;-106.5564;35.0700 
834.720;0.2617;0.9585;-0.0273;0.0000;0.0000;0.0000;93.3069;-15.8313;-106.5564;35.0700 
834.720;0.2617;0.9585;-0.0273;0.0000;0.0000;0.0000;93.3069;-15.8313;-106.5619;35.0800 
834.720;0.2617;0.9585;-0.0273;0.0000;0.0000;0.0000;93.3014;-15.8258;-106.5674;35.0800 
834.720;0.2617;0.9585;-0.0273;0.0000;0.0000;0.0000;93.2959;-15.8258;-106.5729;35.0900 
834.720;0.2617;0.9585;-0.0273;0.0000;0.0000;0.0000;93.2904;-15.8258;-106.5784;35.0900 
834.720;0.2617;0.9585;-0.0273;0.0000;0.0000;0.0000;93.2849;-15.8203;-106.5839;35.1100 
834.720;0.2622;0.9585;-0.0273;0.0000;0.0000;0.0000;93.2794;-15.8203;-106.5894;35.1100 
834.720;0.2622;0.9585;-0.0273;0.0000;0.0000;0.0000;93.2739;-15.8203;-106.5948;35.1100 
834.720;0.2622;0.9585;-0.0273;0.0000;0.0000;0.0000;93.2684;-15.8148;-106.6003;35.0800 
834.720;0.2622;0.9585;-0.0273;0.0000;0.0000;0.0000;93.2629;-15.8148;-106.6003;35.0800 
834.720;0.2622;0.9585;-0.0273;0.0000;0.0000;0.0000;93.2574;-15.8148;-106.6058;35.1300 
834.720;0.2622;0.9585;-0.0273;0.0000;0.0000;0.0000;93.2574;-15.8148;-106.6113;35.1300 
834.720;0.2622;0.9585;-0.0273;0.0000;0.0000;0.0000;93.2520;-15.8093;-106.6168;35.0700 
834.720;0.2622;0.9585;-0.0273;0.0000;0.0000;0.0000;93.2465;-15.8093;-106.6223;35.0700 
834.720;0.2622;0.9585;-0.0278;0.0000;0.0000;0.0000;93.2410;-15.8093;-106.6278;35.0800 
834.720;0.2622;0.9585;-0.0278;0.0000;0.0000;0.0000;93.2355;-15.8038;-106.6333;35.0800 
834.720;0.2622;0.9585;-0.0278;0.0000;0.0000;0.0000;93.2300;-15.8038;-106.6388;35.1100 
834.720;0.2622;0.9585;-0.0278;0.0000;0.0000;0.0000;93.2245;-15.8038;-106.6443;35.1100 
834.720;0.2622;0.9585;-0.0278;0.0000;0.0000;0.0000;93.2245;-15.7983;-106.6498;34.9900 
834.720;0.2622;0.9585;-0.0278;0.0000;0.0000;0.0000;93.2190;-15.7983;-106.6553;34.9900 
834.720;0.2622;0.9585;-0.0278;0.0000;0.0000;0.0000;93.2135;-15.7983;-106.6608;35.0600 
834.720;0.2622;0.9585;-0.0278;0.0000;0.0000;0.0000;93.2080;-15.7983;-106.6663;35.0600 
834.720;0.2622;0.9585;-0.0278;0.0000;0.0000;0.0000;93.2025;-15.7928;-106.6718;35.1100 
834.720;0.2622;0.9585;-0.0278;0.0000;0.0000;0.0000;93.1970;-15.7928;-106.6772;35.1100 
834.720;0.2622;0.9585;-0.0278;0.0000;0.0000;0.0000;93.1970;-15.7928;-106.6882;35.1100 
834.740;0.2622;0.9585;-0.0278;0.0000;0.0000;0.0000;93.1915;-15.7874;-106.6937;35.1000 
834.740;0.2622;0.9585;-0.0278;0.0000;0.0000;0.0000;93.1860;-15.7874;-106.6992;35.1000 
834.740;0.2622;0.9585;-0.0278;0.0000;0.0000;0.0000;93.1805;-15.7874;-106.7047;35.0400 
834.740;0.2622;0.9585;-0.0278;0.0000;0.0000;0.0000;93.1750;-15.7874;-106.7102;35.0400 
834.740;0.2622;0.9585;-0.0278;0.0000;0.0000;0.0000;93.1696;-15.7819;-106.7157;35.0500 
834.740;0.2617;0.9585;-0.0278;0.0000;0.0000;0.0000;93.1696;-15.7819;-106.7212;35.0500 
834.740;0.2617;0.9585;-0.0278;0.0000;0.0000;0.0000;93.1641;-15.7819;-106.7212;35.1000 
834.740;0.2617;0.9585;-0.0278;0.0000;0.0000;0.0000;93.1586;-15.7764;-106.7267;35.1000 
834.750;0.2617;0.9585;-0.0278;0.0000;0.0000;0.0000;93.1531;-15.7764;-106.7322;35.0600 
834.750;0.2617;0.9585;-0.0278;0.0000;0.0000;0.0000;93.1476;-15.7764;-106.7377;35.0600 
834.770;0.2617;0.9585;-0.0278;0.0000;0.0000;0.0000;93.1476;-15.7764;-106.7432;35.0800 
834.770;0.2617;0.9585;-0.0278;0.0000;0.0000;0.0000;93.1421;-15.7709;-106.7432;35.0800 
834.770;0.2617;0.9585;-0.0278;0.0000;0.0000;0.0000;93.1366;-15.7709;-106.7487;35.1100 
834.770;0.2617;0.9585;-0.0278;0.0000;0.0000;0.0000;93.1311;-15.7709;-106.7542;35.1100 
834.770;0.2617;0.9585;-0.0278;0.0000;0.0000;0.0000;93.1256;-15.7654;-106.7542;35.1100 
834.800;0.2617;0.9585;-0.0278;0.0000;0.0000;0.0000;93.1256;-15.7654;-106.7596;34.9900 
834.800;0.2617;0.9585;-0.0278;0.0000;0.0000;0.0000;93.1201;-15.7654;-106.7596;34.9900 
834.900;0.2617;0.9585;-0.0278;0.0000;0.0000;0.0000;93.1146;-15.7654;-106.7596;35.0700 
834.900;0.2617;0.9585;-0.0278;0.0000;0.0000;0.0000;93.1091;-15.7599;-106.7651;35.0700 
834.900;0.2617;0.9585;-0.0278;0.0000;0.0000;0.0000;93.1036;-15.7599;-106.7651;35.1100 
834.900;0.2622;0.9585;-0.0278;0.0000;0.0000;0.0000;93.1036;-15.7599;-106.7706;35.1100 
834.900;0.2622;0.9585;-0.0278;0.0000;0.0000;0.0000;93.0981;-15.7544;-106.7706;35.1100 
834.900;0.2622;0.9585;-0.0278;0.0000;0.0000;0.0000;93.0927;-15.7544;-106.7761;35.1100 
834.910;0.2622;0.9585;-0.0278;0.0000;0.0000;0.0000;93.0872;-15.7544;-106.7761;35.0700 
834.910;0.2622;0.9585;-0.0278;0.0000;0.0000;0.0000;93.0817;-15.7544;-106.7816;35.0700 
834.910;0.2622;0.9585;-0.0278;0.0000;0.0000;0.0000;93.0817;-15.7489;-106.7816;35.0300 
834.910;0.2622;0.9585;-0.0278;0.0000;0.0000;0.0000;93.0762;-15.7489;-106.7816;35.0300 
834.910;0.2622;0.9585;-0.0278;0.0000;0.0000;0.0000;93.0707;-15.7489;-106.7871;35.0200 
834.910;0.2622;0.9585;-0.0278;0.0000;0.0000;0.0000;93.0652;-15.7489;-106.7871;35.0200 
834.910;0.2622;0.9585;-0.0278;0.0000;0.0000;0.0000;93.0652;-15.7434;-106.7926;35.1300 
834.910;0.2622;0.9585;-0.0278;0.0000;0.0000;0.0000;93.0597;-15.7434;-106.7926;35.1300 
834.910;0.2622;0.9585;-0.0278;0.0000;0.0000;0.0000;93.0542;-15.7434;-106.7981;35.1300 
834.910;0.2622;0.9585;-0.0278;0.0000;0.0000;0.0000;93.0487;-15.7434;-106.7981;35.0400 
834.910;0.2622;0.9585;-0.0278;0.0000;0.0000;0.0000;93.0487;-15.7379;-106.8036;35.0400 
834.910;0.2622;0.9585;-0.0278;0.0000;0.0000;0.0000;93.0432;-15.7379;-106.8036;35.0400 
834.910;0.2622;0.9585;-0.0278;0.0000;0.0000;0.0000;93.0377;-15.7379;-106.8091;35.0400 
834.920;0.2622;0.9585;-0.0278;0.0000;0.0000;0.0000;93.0322;-15.7379;-106.8091;35.0400 
834.920;0.2622;0.9585;-0.0278;0.0000;0.0000;0.0000;93.0322;-15.7324;-106.8146;35.0400 
835.220;0.2622;0.9585;-0.0278;0.0000;0.0000;0.0000;93.0267;-15.7324;-106.8201;35.0700 
835.220;0.2622;0.9585;-0.0278;0.0000;0.0000;0.0000;93.0212;-15.7324;-106.8256;35.0700 
835.330;0.2622;0.9585;-0.0278;0.0000;0.0000;0.0000;93.0157;-15.7324;-106.8311;35.0900 
835.330;0.2622;0.9585;-0.0278;0.0000;0.0000;0.0000;93.0157;-15.7269;-106.8311;35.0900 
835.330;0.2622;0.9585;-0.0278;0.0000;0.0000;0.0000;93.0103;-15.7269;-106.8365;35.0400 
835.330;0.2622;0.9585;-0.0278;0.0000;0.0000;0.0000;93.0048;-15.7269;-106.8420;35.0400 
835.330;0.2622;0.9585;-0.0278;0.0000;0.0000;0.0000;92.9993;-15.7269;-106.8420;35.1000 
835.330;0.2622;0.9585;-0.0278;0.0000;0.0000;0.0000;92.9993;-15.7214;-106.8475;35.1000 
835.330;0.2622;0.9585;-0.0278;0.0000;0.0000;0.0000;92.9938;-15.7214;-106.8530;35.0800 
835.330;0.2622;0.9585;-0.0278;0.0000;0.0000;0.0000;92.9883;-15.7214;-106.8530;35.0800 
835.330;0.2622;0.9585;-0.0278;0.0000;0.0000;0.0000;92.9828;-15.7214;-106.8585;35.0800 
835.330;0.2622;0.9585;-0.0278;0.0000;0.0000;0.0000;92.9828;-15.7159;-106.8640;35.0500 
835.330;0.2622;0.9585;-0.0278;0.0000;0.0000;0.0000;92.9773;-15.7159;-106.8695;35.0500 
835.330;0.2622;0.9585;-0.0278;0.0000;0.0000;0.0000;92.9718;-15.7159;-106.8695;35.0900 
835.330;0.2622;0.9590;-0.0273;0.0000;0.0000;0.0000;92.9718;-15.7159;-106.8750;35.0900 
835.330;0.2622;0.9590;-0.0273;0.0000;0.0000;0.0000;92.9663;-15.7104;-106.8805;35.1100 
835.330;0.2622;0.9590;-0.0273;0.0000;0.0000;0.0000;92.9608;-15.7104;-106.8805;35.1100 
835.330;0.2622;0.9590;-0.0273;0.0000;0.0000;0.0000;92.9553;-15.7104;-106.8860;35.0600 
835.330;0.2622;0.9590;-0.0273;0.0000;0.0000;0.0000;92.9553;-15.7104;-106.8915;35.0600 
835.330;0.2622;0.9590;-0.0273;0.0000;0.0000;0.0000;92.9498;-15.7050;-106.8970;35.0700 
835.330;0.2622;0.9590;-0.0273;0.0000;0.0000;0.0000;92.9443;-15.7050;-106.8970;35.0700 
835.330;0.2622;0.9590;-0.0273;0.0000;0.0000;0.0000;92.9443;-15.7050;-106.9025;35.0600 
835.330;0.2622;0.9585;-0.0273;0.0000;0.0000;0.0000;92.9388;-15.7050;-106.9080;35.0600 
835.330;0.2622;0.9585;-0.0273;0.0000;0.0000;0.0000;92.9333;-15.6995;-106.9135;35.1100 
835.330;0.2622;0.9585;-0.0273;0.0000;0.0000;0.0000;92.9279;-15.6995;-106.9189;35.1100 
835.330;0.2622;0.9585;-0.0273;0.0000;0.0000;0.0000;92.9279;-15.6995;-106.9189;35.0800 
835.330;0.2622;0.9585;-0.0273;0.0000;0.0000;0.0000;92.9224;-15.6995;-106.9244;35.0800 
835.330;0.2622;0.9585;-0.0273;0.0000;0.0000;0.0000;92.9169;-15.6940;-106.9244;35.0800 
835.330;0.2622;0.9585;-0.0273;0.0000;0.0000;0.0000;92.9169;-15.6940;-106.9299;35.0500 
835.330;0.2622;0.9585;-0.0273;0.0000;0.0000;0.0000;92.9114;-15.6940;-106.9354;35.0500 
835.330;0.2622;0.9585;-0.0273;0.0000;0.0000;0.0000;92.9059;-15.6940;-106.9354;35.0700 
835.330;0.2622;0.9585;-0.0273;0.0000;0.0000;0.0000;92.9059;-15.6885;-106.9409;35.0700 
835.330;0.2622;0.9585;-0.0273;0.0000;0.0000;0.0000;92.9004;-15.6885;-106.9464;35.1100 
835.340;0.2622;0.9585;-0.0273;0.0000;0.0000;0.0000;92.8949;-15.6885;-106.9464;35.1100 
835.340;0.2622;0.9585;-0.0273;0.0000;0.0000;0.0000;92.8894;-15.6885;-106.9519;35.0900 
835.340;0.2622;0.9585;-0.0273;0.0000;0.0000;0.0000;92.8894;-15.6885;-106.9574;35.0900 
835.340;0.2622;0.9585;-0.0273;0.0000;0.0000;0.0000;92.8839;-15.6830;-106.9574;35.1500 
835.340;0.2622;0.9585;-0.0273;0.0000;0.0000;0.0000;92.8784;-15.6830;-106.9629;35.1500 
835.340;0.2627;0.9585;-0.0273;0.0000;0.0000;0.0000;92.8784;-15.6830;-106.9684;35.0100 
835.340;0.2627;0.9585;-0.0273;0.0000;0.0000;0.0000;92.8729;-15.6830;-106.9684;35.0100 
835.340;0.2627;0.9585;-0.0273;0.0000;0.0000;0.0000;92.8674;-15.6775;-106.9739;35.0400 
835.340;0.2627;0.9585;-0.0273;0.0000;0.0000;0.0000;92.8674;-15.6775;-106.9794;35.0400 
835.340;0.2627;0.9585;-0.0273;0.0000;0.0000;0.0000;92.8619;-15.6775;-106.9849;35.0400 
835.340;0.2627;0.9585;-0.0273;0.0000;0.0000;0.0000;92.8564;-15.6775;-106.9849;35.0500 
835.340;0.2627;0.9585;-0.0273;0.0000;0.0000;0.0000;92.8564;-15.6775;-106.9904;35.0500 
835.340;0.2627;0.9585;-0.0273;0.0000;0.0000;0.0000;92.8510;-15.6720;-106.9958;35.0500 
835.340;0.2627;0.9585;-0.0278;0.0000;0.0000;0.0000;92.8455;-15.6720;-107.0013;35.0500 
835.340;0.2627;0.9585;-0.0278;0.0000;0.0000;0.0000;92.8455;-15.6720;-107.0068;35.0600 
835.340;0.2627;0.9585;-0.0278;0.0000;0.0000;0.0000;92.8400;-15.6720;-107.0123;35.0600 
835.340;0.2627;0.9585;-0.0278;0.0000;0.0000;0.0000;92.8345;-15.6720;-107.0178;35.0900 
835.340;0.2627;0.9585;-0.0278;0.0000;0.0000;0.0000;92.8345;-15.6665;-107.0178;35.0900 
835.340;0.2627;0.9585;-0.0278;0.0000;0.0000;0.0000;92.8290;-15.6665;-107.0233;35.0500 
835.340;0.2627;0.9585;-0.0278;0.0000;0.0000;0.0000;92.8290;-15.6665;-107.0288;35.0500 
835.340;0.2627;0.9585;-0.0278;0.0000;0.0000;0.0000;92.8235;-15.6665;-107.0343;35.1400 
835.340;0.2627;0.9585;-0.0273;0.0000;0.0000;0.0000;92.8180;-15.6665;-107.0398;35.1400 
835.340;0.2627;0.9585;-0.0273;0.0000;0.0000;0.0000;92.8180;-15.6610;-107.0453;35.0800 
835.340;0.2627;0.9585;-0.0273;0.0000;0.0000;0.0000;92.8125;-15.6610;-107.0453;35.0800 
835.340;0.2627;0.9585;-0.0273;0.0000;0.0000;0.0000;92.8070;-15.6610;-107.0508;35.1000 
835.340;0.2627;0.9585;-0.0273;0.0000;0.0000;0.0000;92.8070;-15.6610;-107.0563;35.1000 
835.340;0.2627;0.9585;-0.0273;0.0000;0.0000;0.0000;92.8015;-15.6610;-107.0618;35.1000 
835.340;0.2627;0.9585;-0.0273;0.0000;0.0000;0.0000;92.7960;-15.6555;-107.0618;35.0000 
835.360;0.2627;0.9585;-0.0273;0.0000;0.0000;0.0000;92.7960;-15.6555;-107.0673;35.0000 
835.360;0.2627;0.9580;-0.0273;0.0000;0.0000;0.0000;92.7905;-15.6555;-107.0728;35.0200 
835.370;0.2627;0.9580;-0.0273;0.0000;0.0000;0.0000;92.7905;-15.6555;-107.0728;35.0200 
835.370;0.2627;0.9580;-0.0273;0.0000;0.0000;0.0000;92.7850;-15.6555;-107.0782;35.0400 
835.370;0.2627;0.9580;-0.0273;0.0000;0.0000;0.0000;92.7795;-15.6500;-107.0837;35.0400 
835.470;0.2627;0.9580;-0.0273;0.0000;0.0000;0.0000;92.7795;-15.6500;-107.0837;35.0700 
835.470;0.2627;0.9580;-0.0273;0.0000;0.0000;0.0000;92.7740;-15.6500;-107.0892;35.0700 
835.480;0.2627;0.9580;-0.0273;0.0000;0.0000;0.0000;92.7686;-15.6500;-107.0892;35.0300 
835.480;0.2627;0.9580;-0.0273;0.0000;0.0000;0.0000;92.7686;-15.6500;-107.0947;35.0300 
835.480;0.2622;0.9585;-0.0273;0.0000;0.0000;0.0000;92.7631;-15.6500;-107.1002;35.0800 
835.480;0.2622;0.9585;-0.0273;0.0000;0.0000;0.0000;92.7631;-15.6445;-107.1002;35.0800 
835.480;0.2622;0.9585;-0.0273;0.0000;0.0000;0.0000;92.7576;-15.6445;-107.1057;35.0900 
835.480;0.2622;0.9585;-0.0273;0.0000;0.0000;0.0000;92.7521;-15.6445;-107.1112;35.0900 
835.480;0.2622;0.9585;-0.0273;0.0000;0.0000;0.0000;92.7521;-15.6445;-107.1112;35.1200 
835.480;0.2622;0.9585;-0.0273;0.0000;0.0000;0.0000;92.7466;-15.6390;-107.1167;35.1200 
835.480;0.2622;0.9585;-0.0273;0.0000;0.0000;0.0000;92.7466;-15.6390;-107.1222;35.1200 
835.480;0.2622;0.9585;-0.0273;0.0000;0.0000;0.0000;92.7411;-15.6390;-107.1277;35.0600 
835.480;0.2617;0.9585;-0.0273;0.0000;0.0000;0.0000;92.7356;-15.6390;-107.1277;35.0600 
835.480;0.2617;0.9585;-0.0273;0.0000;0.0000;0.0000;92.7356;-15.6390;-107.1332;35.0600 
835.490;0.2617;0.9585;-0.0273;0.0000;0.0000;0.0000;92.7301;-15.6335;-107.1332;35.0600 
835.490;0.2617;0.9585;-0.0273;0.0000;0.0000;0.0000;92.7301;-15.6335;-107.1387;35.0600 
835.490;0.2617;0.9585;-0.0273;0.0000;0.0000;0.0000;92.7246;-15.6335;-107.1442;35.0600 
835.490;0.2617;0.9585;-0.0273;0.0000;0.0000;0.0000;92.7191;-15.6335;-107.1442;35.0700 
835.520;0.2617;0.9585;-0.0273;0.0000;0.0000;0.0000;92.7191;-15.6335;-107.1497;35.0700 
835.520;0.2617;0.9585;-0.0273;0.0000;0.0000;0.0000;92.7136;-15.6281;-107.1552;35.0900 
835.590;0.2617;0.9585;-0.0273;0.0000;0.0000;0.0000;92.7136;-15.6281;-107.1606;35.0900 
835.590;0.2617;0.9585;-0.0273;0.0000;0.0000;0.0000;92.7081;-15.6281;-107.1606;35.0700 
835.600;0.2617;0.9585;-0.0273;0.0000;0.0000;0.0000;92.7026;-15.6281;-107.1661;35.0700 
835.600;0.2617;0.9585;-0.0273;0.0000;0.0000;0.0000;92.7026;-15.6281;-107.1716;35.1100 
835.600;0.2617;0.9585;-0.0273;0.0000;0.0000;0.0000;92.6971;-15.6226;-107.1716;35.1100 
835.600;0.2617;0.9585;-0.0273;0.0000;0.0000;0.0000;92.6971;-15.6226;-107.1771;35.0600 
835.600;0.2617;0.9585;-0.0273;0.0000;0.0000;0.0000;92.6917;-15.6226;-107.1826;35.0600 
835.600;0.2617;0.9585;-0.0273;0.0000;0.0000;0.0000;92.6917;-15.6226;-107.1826;35.0600 
835.600;0.2617;0.9590;-0.0273;0.0000;0.0000;0.0000;92.6862;-15.6226;-107.1881;35.1300 
835.600;0.2617;0.9590;-0.0273;0.0000;0.0000;0.0000;92.6807;-15.6171;-107.1936;35.1300 
835.600;0.2617;0.9590;-0.0273;0.0000;0.0000;0.0000;92.6807;-15.6171;-107.1936;35.0800 
835.600;0.2617;0.9590;-0.0273;0.0000;0.0000;0.0000;92.6752;-15.6171;-107.1991;35.0800 
835.600;0.2617;0.9590;-0.0273;0.0000;0.0000;0.0000;92.6752;-15.6171;-107.1991;35.0800 
835.610;0.2617;0.9590;-0.0273;0.0000;0.0000;0.0000;92.6697;-15.6116;-107.2046;35.0800 
835.610;0.2617;0.9590;-0.0273;0.0000;0.0000;0.0000;92.6697;-15.6116;-107.2046;35.1400 
835.610;0.2617;0.9590;-0.0273;0.0000;0.0000;0.0000;92.6642;-15.6116;-107.2046;35.1400 
835.610;0.2617;0.9590;-0.0273;0.0000;0.0000;0.0000;92.6587;-15.6116;-107.2101;35.0400 
835.640;0.2617;0.9590;-0.0273;0.0000;0.0000;0.0000;92.6587;-15.6116;-107.2101;35.0400 
835.640;0.2617;0.9590;-0.0273;0.0000;0.0000;0.0000;92.6532;-15.6061;-107.2156;35.1200 
835.720;0.2617;0.9590;-0.0273;0.0000;0.0000;0.0000;92.6532;-15.6061;-107.2156;35.1200 
835.720;0.2617;0.9590;-0.0273;0.0000;0.0000;0.0000;92.6477;-15.6061;-107.2211;35.1000 
835.720;0.2617;0.9590;-0.0273;0.0000;0.0000;0.0000;92.6477;-15.6061;-107.2211;35.1000 
835.720;0.2617;0.9590;-0.0273;0.0000;0.0000;0.0000;92.6422;-15.6061;-107.2211;35.1000 
835.740;0.2617;0.9590;-0.0273;0.0000;0.0000;0.0000;92.6422;-15.6006;-107.2266;35.0500 
835.740;0.2617;0.9590;-0.0273;0.0000;0.0000;0.0000;92.6367;-15.6006;-107.2266;35.0500 
835.740;0.2617;0.9590;-0.0273;0.0000;0.0000;0.0000;92.6312;-15.6006;-107.2266;35.0700 
835.740;0.2617;0.9590;-0.0273;0.0000;0.0000;0.0000;92.6312;-15.6006;-107.2321;35.0700 
835.740;0.2617;0.9590;-0.0273;0.0000;0.0000;0.0000;92.6257;-15.6006;-107.2321;35.0900 
835.740;0.2617;0.9590;-0.0273;0.0000;0.0000;0.0000;92.6257;-15.5951;-107.2375;35.0900 
835.740;0.2617;0.9590;-0.0273;0.0000;0.0000;0.0000;92.6202;-15.5951;-107.2375;35.0800 
835.740;0.2617;0.9590;-0.0273;0.0000;0.0000;0.0000;92.6202;-15.5951;-107.2375;35.0800 
835.740;0.2617;0.9590;-0.0273;0.0000;0.0000;0.0000;92.6147;-15.5951;-107.2430;35.1100 
835.740;0.2622;0.9590;-0.0273;0.0000;0.0000;0.0000;92.6147;-15.5951;-107.2430;35.1100 
835.740;0.2622;0.9590;-0.0273;0.0000;0.0000;0.0000;92.6093;-15.5951;-107.2430;35.0800 
835.740;0.2622;0.9590;-0.0273;0.0000;0.0000;0.0000;92.6093;-15.5896;-107.2485;35.0800 
835.740;0.2622;0.9590;-0.0273;0.0000;0.0000;0.0000;92.6038;-15.5896;-107.2485;35.1600 
835.740;0.2622;0.9590;-0.0273;0.0000;0.0000;0.0000;92.6038;-15.5896;-107.2485;35.1600 
835.750;0.2622;0.9590;-0.0273;0.0000;0.0000;0.0000;92.5983;-15.5896;-107.2485;35.0900 
835.750;0.2622;0.9590;-0.0273;0.0000;0.0000;0.0000;92.5928;-15.5896;-107.2540;35.0900 
835.750;0.2622;0.9590;-0.0273;0.0000;0.0000;0.0000;92.5928;-15.5896;-107.2540;35.0900 
835.770;0.2622;0.9585;-0.0273;0.0000;0.0000;0.0000;92.5873;-15.5841;-107.2540;35.1300 
835.770;0.2622;0.9585;-0.0273;0.0000;0.0000;0.0000;92.5873;-15.5841;-107.2540;35.1300 
835.770;0.2622;0.9585;-0.0273;0.0000;0.0000;0.0000;92.5818;-15.5841;-107.2595;35.0000 
835.770;0.2622;0.9585;-0.0273;0.0000;0.0000;0.0000;92.5818;-15.5841;-107.2595;35.0000 
835.770;0.2622;0.9585;-0.0273;0.0000;0.0000;0.0000;92.5763;-15.5841;-107.2650;35.0600 
835.770;0.2622;0.9585;-0.0273;0.0000;0.0000;0.0000;92.5763;-15.5841;-107.2650;35.0600 
835.770;0.2622;0.9585;-0.0273;0.0000;0.0000;0.0000;92.5708;-15.5786;-107.2650;35.1100 
835.770;0.2622;0.9585;-0.0273;0.0000;0.0000;0.0000;92.5708;-15.5786;-107.2705;35.1100 
835.780;0.2622;0.9585;-0.0273;0.0000;0.0000;0.0000;92.5653;-15.5786;-107.2705;35.0200 
835.780;0.2622;0.9585;-0.0273;0.0000;0.0000;0.0000;92.5653;-15.5786;-107.2705;35.0200 
835.800;0.2622;0.9585;-0.0273;0.0000;0.0000;0.0000;92.5598;-15.5786;-107.2760;35.0700 
835.800;0.2622;0.9585;-0.0273;0.0000;0.0000;0.0000;92.5598;-15.5786;-107.2760;35.0700 
835.800;0.2622;0.9585;-0.0273;0.0000;0.0000;0.0000;92.5543;-15.5731;-107.2760;35.0700 
835.800;0.2622;0.9585;-0.0273;0.0000;0.0000;0.0000;92.5543;-15.5731;-107.2760;35.0700 
835.800;0.2622;0.9585;-0.0273;0.0000;0.0000;0.0000;92.5488;-15.5731;-107.2760;35.1000 
835.800;0.2622;0.9585;-0.0273;0.0000;0.0000;0.0000;92.5488;-15.5731;-107.2815;35.1000 
