Time;ax;ay;az;wx;wy;wz;AngleX;AngleY;AngleZ;T 
920.082;-0.6548;-0.0259;1.0117;0.0000;0.9766;-0.7324;-0.1593;0.5548;-60.7764;35.0700 
920.082;-0.6548;-0.0259;1.0117;0.0000;0.9766;-0.7324;-0.1648;0.6537;-60.7654;34.9600 
920.082;-0.6548;-0.0259;1.0117;0.0000;0.9766;-0.7324;-0.1703;0.7526;-60.7654;34.9600 
920.082;-0.6548;-0.0259;1.0117;0.0000;0.9766;-0.7324;-0.1758;0.8514;-60.7599;35.0100 
920.082;-0.6548;-0.0259;1.0117;0.0000;0.9766;-0.7324;-0.1813;0.9503;-60.7544;35.0100 
920.082;-0.6548;-0.0259;1.0117;0.0000;0.9766;-0.7324;-0.1868;1.0547;-60.7489;35.0100 
920.082;-0.6548;-0.0259;1.0117;0.0000;0.9766;-0.7324;-0.1923;1.1536;-60.7489;35.0700 
920.082;-1.2856;-0.0547;0.9849;-0.3052;3.1738;-2.3804;-0.2142;1.3129;-60.7324;35.0700 
920.092;-1.2856;-0.0547;0.9849;-0.3052;3.1738;-2.3804;-0.2307;1.4777;-60.7159;35.0800 
920.092;-1.2856;-0.0547;0.9849;-0.3052;3.1738;-2.3804;-0.2527;1.6425;-60.7050;35.0800 
920.092;-1.2856;-0.0547;0.9849;-0.3052;3.1738;-2.3804;-0.2747;1.8018;-60.6940;35.0000 
920.092;-1.2856;-0.0547;0.9849;-0.3052;3.1738;-2.3804;-0.2911;1.9666;-60.6775;35.0000 
920.092;-1.2856;-0.0547;0.9849;-0.3052;3.1738;-2.3804;-0.3131;2.1259;-60.6610;34.9900 
920.092;-1.2856;-0.0547;0.9849;-0.3052;3.1738;-2.3804;-0.3351;2.2906;-60.6500;34.9900 
920.092;-1.2856;-0.0547;0.9849;-0.3052;3.1738;-2.3804;-0.3571;2.4500;-60.6335;35.0200 
920.092;-1.9033;-0.1338;0.9268;-1.2207;5.1270;-5.0659;-0.4065;2.6477;-60.6116;35.0200 
920.092;-1.9033;-0.1338;0.9268;-1.2207;5.1270;-5.0659;-0.4559;2.8400;-60.5841;35.0300 
920.092;-1.9033;-0.1338;0.9268;-1.2207;5.1270;-5.0659;-0.5054;3.0377;-60.5621;35.0300 
920.092;-1.9033;-0.1338;0.9268;-1.2207;5.1270;-5.0659;-0.5493;3.2300;-60.5402;35.0700 
920.092;-1.9033;-0.1338;0.9268;-1.2207;5.1270;-5.0659;-0.5988;3.4277;-60.5182;35.0700 
920.092;-1.9033;-0.1338;0.9268;-1.2207;5.1270;-5.0659;-0.6482;3.6200;-60.4962;35.0800 
920.092;-1.9033;-0.1338;0.9268;-1.2207;5.1270;-5.0659;-0.6976;3.8123;-60.4742;35.0800 
920.102;-1.9033;-0.1338;0.9268;-1.2207;5.1270;-5.0659;-0.7471;4.0045;-60.4523;35.0800 
920.102;-2.2842;-0.2144;0.8828;-2.5635;5.4321;-8.4229;-0.8185;4.2078;-60.4358;35.0200 
920.102;-2.2842;-0.2144;0.8828;-2.5635;5.4321;-8.4229;-0.8899;4.4110;-60.4193;35.0200 
920.102;-2.2842;-0.2144;0.8828;-2.5635;5.4321;-8.4229;-0.9613;4.6143;-60.4028;35.0100 
920.102;-2.2842;-0.2144;0.8828;-2.5635;5.4321;-8.4229;-1.0327;4.8120;-60.3864;35.0100 
920.112;-2.2842;-0.2144;0.8828;-2.5635;5.4321;-8.4229;-1.1041;5.0153;-60.3699;35.0500 
920.112;-2.2842;-0.2144;0.8828;-2.5635;5.4321;-8.4229;-1.1810;5.2130;-60.3534;35.0500 
920.132;-2.2842;-0.2144;0.8828;-2.5635;5.4321;-8.4229;-1.2524;5.4108;-60.3369;35.0800 
920.132;-2.2842;-0.2144;0.8828;-2.5635;5.4321;-8.4229;-1.3239;5.6085;-60.3204;35.0800 
920.132;-2.2710;-0.3159;0.8179;-3.1738;3.2349;-11.3525;-1.4117;5.7953;-60.3149;35.0400 
920.132;-2.2710;-0.3159;0.8179;-3.1738;3.2349;-11.3525;-1.4996;5.9821;-60.3094;35.0400 
920.132;-2.2710;-0.3159;0.8179;-3.1738;3.2349;-11.3525;-1.5875;6.1633;-60.3094;34.9900 
920.132;-2.2710;-0.3159;0.8179;-3.1738;3.2349;-11.3525;-1.6809;6.3501;-60.3040;34.9900 
920.142;-2.2710;-0.3159;0.8179;-3.1738;3.2349;-11.3525;-1.7688;6.5314;-60.2985;34.9300 
920.142;-2.2710;-0.3159;0.8179;-3.1738;3.2349;-11.3525;-1.8567;6.7181;-60.2930;34.9300 
920.282;-2.2710;-0.3159;0.8179;-3.1738;3.2349;-11.3525;-1.9446;6.8994;-60.2930;35.0900 
920.282;-2.2710;-0.3159;0.8179;-3.1738;3.2349;-11.3525;-2.0325;7.0807;-60.2875;35.0900 
920.292;-1.8843;-0.3462;0.7349;-1.4648;-2.4414;-13.2446;-2.1204;7.2290;-60.2930;35.0900 
920.292;-1.8843;-0.3462;0.7349;-1.4648;-2.4414;-13.2446;-2.2028;7.3773;-60.3040;35.0700 
920.292;-1.8843;-0.3462;0.7349;-1.4648;-2.4414;-13.2446;-2.2906;7.5256;-60.3149;35.0700 
920.292;-1.8843;-0.3462;0.7349;-1.4648;-2.4414;-13.2446;-2.3730;7.6740;-60.3259;35.0100 
920.292;-1.8843;-0.3462;0.7349;-1.4648;-2.4414;-13.2446;-2.4554;7.8168;-60.3369;35.0100 
920.292;-1.8843;-0.3462;0.7349;-1.4648;-2.4414;-13.2446;-2.5378;7.9651;-60.3534;35.0700 
920.292;-1.8843;-0.3462;0.7349;-1.4648;-2.4414;-13.2446;-2.6202;8.1079;-60.3644;35.0700 
920.292;-1.8843;-0.3462;0.7349;-1.4648;-2.4414;-13.2446;-2.7026;8.2562;-60.3754;35.0400 
920.292;-1.2554;-0.3120;0.5698;3.6621;-11.1084;-14.4043;-2.7686;8.3496;-60.4028;35.0400 
920.292;-1.2554;-0.3120;0.5698;3.6621;-11.1084;-14.4043;-2.8290;8.4375;-60.4248;35.0600 
920.292;-1.2554;-0.3120;0.5698;3.6621;-11.1084;-14.4043;-2.8894;8.5309;-60.4468;35.0600 
920.292;-1.2554;-0.3120;0.5698;3.6621;-11.1084;-14.4043;-2.9498;8.6188;-60.4688;35.1000 
920.292;-1.2554;-0.3120;0.5698;3.6621;-11.1084;-14.4043;-3.0103;8.7122;-60.4962;35.1000 
920.292;-1.2554;-0.3120;0.5698;3.6621;-11.1084;-14.4043;-3.0707;8.8000;-60.5237;35.0000 
920.292;-1.2554;-0.3120;0.5698;3.6621;-11.1084;-14.4043;-3.1311;8.8934;-60.5457;35.0000 
920.292;-1.2554;-0.3120;0.5698;3.6621;-11.1084;-14.4043;-3.1915;8.9813;-60.5731;35.0500 
920.292;-0.5693;-0.2095;0.3550;11.7798;-20.8740;-15.7471;-3.2135;9.0033;-60.6171;35.0500 
920.292;-0.5693;-0.2095;0.3550;11.7798;-20.8740;-15.7471;-3.2355;9.0253;-60.6610;35.0500 
920.292;-0.5693;-0.2095;0.3550;11.7798;-20.8740;-15.7471;-3.2574;9.0417;-60.7050;35.0300 
920.292;-0.5693;-0.2095;0.3550;11.7798;-20.8740;-15.7471;-3.2794;9.0637;-60.7489;35.0300 
920.292;-0.5693;-0.2095;0.3550;11.7798;-20.8740;-15.7471;-3.3014;9.0857;-60.7874;35.0400 
920.292;-0.5693;-0.2095;0.3550;11.7798;-20.8740;-15.7471;-3.3234;9.1022;-60.8313;35.0400 
920.292;-0.5693;-0.2095;0.3550;11.7798;-20.8740;-15.7471;-3.3453;9.1241;-60.8752;35.0600 
920.292;-0.5693;-0.2095;0.3550;11.7798;-20.8740;-15.7471;-3.3673;9.1406;-60.9192;35.0600 
920.292;-0.0239;-0.0942;0.1704;21.1182;-30.7007;-18.4326;-3.3508;8.9813;-61.0291;35.0300 
920.302;-0.0239;-0.0942;0.1704;21.1182;-30.7007;-18.4326;-3.3344;8.8220;-61.1334;35.0300 
920.302;-0.0239;-0.0942;0.1704;21.1182;-30.7007;-18.4326;-3.3179;8.6682;-61.2433;35.0300 
920.302;-0.0239;-0.0942;0.1704;21.1182;-30.7007;-18.4326;-3.3014;8.5089;-61.3531;35.0300 
920.302;-0.0239;-0.0942;0.1704;21.1182;-30.7007;-18.4326;-3.2849;8.3496;-61.4630;34.9900 
920.322;-0.0239;-0.0942;0.1704;21.1182;-30.7007;-18.4326;-3.2684;8.1958;-61.5674;34.9900 
920.322;-0.0239;-0.0942;0.1704;21.1182;-30.7007;-18.4326;-3.2520;8.0365;-61.6772;35.0200 
920.332;-0.0239;-0.0942;0.1704;21.1182;-30.7007;-18.4326;-3.2355;7.8827;-61.7871;35.0200 
920.332;0.3101;0.0024;0.0503;29.3579;-38.9404;-23.1323;-3.0762;7.4432;-61.8640;35.0200 
920.342;0.3101;0.0024;0.0503;29.3579;-38.9404;-23.1323;-2.9224;7.0038;-61.9464;35.0000 
920.342;0.3101;0.0024;0.0503;29.3579;-38.9404;-23.1323;-2.7631;6.5698;-62.0343;35.0000 
920.352;0.3101;0.0024;0.0503;29.3579;-38.9404;-23.1323;-2.6147;6.1304;-62.1222;35.0500 
920.352;0.3101;0.0024;0.0503;29.3579;-38.9404;-23.1323;-2.4609;5.6964;-62.2156;35.0500 
920.362;0.3101;0.0024;0.0503;29.3579;-38.9404;-23.1323;-2.3071;5.2625;-62.3090;35.0600 
920.362;0.3101;0.0024;0.0503;29.3579;-38.9404;-23.1323;-2.1588;4.8285;-62.4023;35.0600 
920.362;0.3101;0.0024;0.0503;29.3579;-38.9404;-23.1323;-2.0050;4.3945;-62.4957;35.1200 
920.362;0.4521;0.0708;0.0000;35.4004;-43.9453;-29.9072;-1.7139;3.9496;-62.5507;35.1200 
920.372;0.4521;0.0708;0.0000;35.4004;-43.9453;-29.9072;-1.4282;3.5046;-62.6111;35.0100 
920.372;0.4521;0.0708;0.0000;35.4004;-43.9453;-29.9072;-1.1426;3.0597;-62.6715;35.0100 
920.382;0.4521;0.0708;0.0000;35.4004;-43.9453;-29.9072;-0.8624;2.6147;-62.7374;35.0700 
920.382;0.4521;0.0708;0.0000;35.4004;-43.9453;-29.9072;-0.5823;2.1698;-62.8088;35.0700 
920.392;0.4521;0.0708;0.0000;35.4004;-43.9453;-29.9072;-0.3021;1.7249;-62.8857;35.0100 
920.392;0.4521;0.0708;0.0000;35.4004;-43.9453;-29.9072;-0.0220;1.2854;-62.9626;35.0100 
920.492;0.4580;0.1094;0.0039;39.3066;-45.4712;-38.3911;0.2856;0.8459;-63.0835;35.0000 
920.502;0.4580;0.1094;0.0039;39.3066;-45.4712;-38.3911;0.5988;0.4065;-63.2098;35.0000 
920.502;0.4580;0.1094;0.0039;39.3066;-45.4712;-38.3911;0.9064;-0.0275;-63.3417;35.0000 
920.502;0.4580;0.1094;0.0039;39.3066;-45.4712;-38.3911;1.2195;-0.4614;-63.4735;35.1000 
920.502;0.4580;0.1094;0.0039;39.3066;-45.4712;-38.3911;1.5326;-0.9009;-63.6108;35.1000 
920.502;0.4580;0.1094;0.0039;39.3066;-45.4712;-38.3911;1.8457;-1.3293;-63.7537;35.0500 
920.502;0.4580;0.1094;0.0039;39.3066;-45.4712;-38.3911;2.1533;-1.7633;-63.8965;35.0500 
920.502;0.4580;0.1094;0.0039;39.3066;-45.4712;-38.3911;2.4664;-2.1973;-64.0393;35.0100 
920.502;0.7539;0.4448;0.3857;41.9312;-43.4570;-48.8892;2.7740;-2.5543;-64.2975;35.0100 
920.502;0.7539;0.4448;0.3857;41.9312;-43.4570;-48.8892;3.0817;-2.9169;-64.5612;35.0500 
920.502;0.7539;0.4448;0.3857;41.9312;-43.4570;-48.8892;3.3948;-3.2739;-64.8248;35.0500 
920.502;0.7539;0.4448;0.3857;41.9312;-43.4570;-48.8892;3.7079;-3.6255;-65.0830;35.0700 
920.502;0.7539;0.4448;0.3857;41.9312;-43.4570;-48.8892;4.0210;-3.9771;-65.3522;35.0700 
920.502;0.7539;0.4448;0.3857;41.9312;-43.4570;-48.8892;4.3341;-4.3286;-65.6158;34.9800 
920.502;0.7539;0.4448;0.3857;41.9312;-43.4570;-48.8892;4.6527;-4.6747;-65.8850;34.9800 
920.502;0.7539;0.4448;0.3857;41.9312;-43.4570;-48.8892;4.9713;-5.0153;-66.1542;35.0400 
920.502;0.6997;0.6816;0.6182;39.7339;-31.1279;-63.2324;5.2954;-5.2515;-66.5057;35.0400 
920.512;0.6997;0.6816;0.6182;39.7339;-31.1279;-63.2324;5.6250;-5.4822;-66.8573;34.9800 
920.512;0.6997;0.6816;0.6182;39.7339;-31.1279;-63.2324;5.9546;-5.7129;-67.2034;34.9800 
920.512;0.6997;0.6816;0.6182;39.7339;-31.1279;-63.2324;6.2842;-5.9381;-67.5549;34.9800 
920.512;0.6997;0.6816;0.6182;39.7339;-31.1279;-63.2324;6.6138;-6.1633;-67.9010;35.0200 
920.512;0.6997;0.6816;0.6182;39.7339;-31.1279;-63.2324;6.9489;-6.3831;-68.2526;35.0200 
920.512;0.6997;0.6816;0.6182;39.7339;-31.1279;-63.2324;7.2839;-6.5973;-68.5986;35.0000 
920.522;0.6997;0.6816;0.6182;39.7339;-31.1279;-63.2324;7.6190;-6.8115;-68.9447;35.0000 
920.522;0.7861;0.9961;1.0303;24.7192;-2.6245;-80.5054;7.8827;-6.8445;-69.3677;35.0300 
920.532;0.7861;0.9961;1.0303;24.7192;-2.6245;-80.5054;8.1464;-6.8774;-69.7906;35.0300 
920.532;0.7861;0.9961;1.0303;24.7192;-2.6245;-80.5054;8.4155;-6.9049;-70.2081;34.9800 
920.562;0.7861;0.9961;1.0303;24.7192;-2.6245;-80.5054;8.6792;-6.9324;-70.6256;34.9800 
920.562;0.7861;0.9961;1.0303;24.7192;-2.6245;-80.5054;8.9429;-6.9543;-71.0431;35.0200 
920.592;0.7861;0.9961;1.0303;24.7192;-2.6245;-80.5054;9.2065;-6.9763;-71.4551;35.0200 
920.592;0.7861;0.9961;1.0303;24.7192;-2.6245;-80.5054;9.4702;-6.9928;-71.8671;35.0200 
920.602;0.7861;0.9961;1.0303;24.7192;-2.6245;-80.5054;9.7394;-7.0093;-72.2736;35.0200 
920.602;0.5303;1.0444;1.1538;-6.4087;35.1563;-94.1772;9.8492;-6.7950;-72.7240;35.0100 
920.602;0.5303;1.0444;1.1538;-6.4087;35.1563;-94.1772;9.9591;-6.5863;-73.1744;35.0100 
920.602;0.5303;1.0444;1.1538;-6.4087;35.1563;-94.1772;10.0690;-6.3721;-73.6194;35.0100 
920.602;0.5303;1.0444;1.1538;-6.4087;35.1563;-94.1772;10.1733;-6.1578;-74.0643;35.0100 
920.602;0.5303;1.0444;1.1538;-6.4087;35.1563;-94.1772;10.2777;-5.9436;-74.5093;35.0100 
920.602;0.5303;1.0444;1.1538;-6.4087;35.1563;-94.1772;10.3821;-5.7294;-74.9487;35.0400 
920.602;0.5303;1.0444;1.1538;-6.4087;35.1563;-94.1772;10.4810;-5.5151;-75.3882;35.0400 
920.602;0.5303;1.0444;1.1538;-6.4087;35.1563;-94.1772;10.5798;-5.3009;-75.8276;35.0900 
920.691;0.1211;0.7861;1.0601;-49.4385;69.2139;-98.0835;10.4480;-4.8779;-76.2616;35.0900 
920.691;0.1211;0.7861;1.0601;-49.4385;69.2139;-98.0835;10.3107;-4.4550;-76.6956;35.0200 
920.712;0.1211;0.7861;1.0601;-49.4385;69.2139;-98.0835;10.1733;-4.0320;-77.1295;35.0200 
920.712;0.1211;0.7861;1.0601;-49.4385;69.2139;-98.0835;10.0360;-3.6145;-77.5635;35.0300 
920.712;0.1211;0.7861;1.0601;-49.4385;69.2139;-98.0835;9.8932;-3.1970;-77.9919;35.0300 
920.712;0.1211;0.7861;1.0601;-49.4385;69.2139;-98.0835;9.7449;-2.7795;-78.4259;35.0300 
920.712;0.1211;0.7861;1.0601;-49.4385;69.2139;-98.0835;9.5966;-2.3676;-78.8599;35.0300 
920.712;0.1211;0.7861;1.0601;-49.4385;69.2139;-98.0835;9.4482;-1.9556;-79.2883;35.0000 
920.712;-0.2173;0.3569;0.8506;-90.9424;80.8105;-87.8296;9.0472;-1.4447;-79.6674;35.0000 
920.712;-0.2173;0.3569;0.8506;-90.9424;80.8105;-87.8296;8.6407;-0.9338;-80.0464;35.0500 
920.712;-0.2173;0.3569;0.8506;-90.9424;80.8105;-87.8296;8.2343;-0.4285;-80.4309;35.0500 
920.712;-0.2173;0.3569;0.8506;-90.9424;80.8105;-87.8296;7.8278;0.0659;-80.8154;35.0200 
920.712;-0.2173;0.3569;0.8506;-90.9424;80.8105;-87.8296;7.4158;0.5603;-81.2000;35.0200 
920.712;-0.2173;0.3569;0.8506;-90.9424;80.8105;-87.8296;7.0038;1.0547;-81.5900;35.0200 
920.722;-0.2173;0.3569;0.8506;-90.9424;80.8105;-87.8296;6.5863;1.5381;-81.9855;35.0300 
920.722;-0.2173;0.3569;0.8506;-90.9424;80.8105;-87.8296;6.1688;2.0270;-82.3810;35.0300 
920.742;0.0127;-0.1904;0.9233;-109.4971;57.1899;-65.6128;5.5591;2.3291;-82.6666;35.0500 
920.742;0.0127;-0.1904;0.9233;-109.4971;57.1899;-65.6128;4.9493;2.6367;-82.9523;35.0500 
920.742;0.0127;-0.1904;0.9233;-109.4971;57.1899;-65.6128;4.3396;2.9333;-83.2434;34.9800 
920.742;0.0127;-0.1904;0.9233;-109.4971;57.1899;-65.6128;3.7299;3.2300;-83.5400;34.9800 
920.751;0.0127;-0.1904;0.9233;-109.4971;57.1899;-65.6128;3.1201;3.5211;-83.8422;35.0200 
920.751;0.0127;-0.1904;0.9233;-109.4971;57.1899;-65.6128;2.5104;3.8068;-84.1443;35.0200 
920.761;0.0127;-0.1904;0.9233;-109.4971;57.1899;-65.6128;1.9006;4.0869;-84.4574;35.0600 
920.761;0.0127;-0.1904;0.9233;-109.4971;57.1899;-65.6128;1.2909;4.3671;-84.7650;35.0600 
920.901;0.1182;-0.4819;0.7549;-86.2427;8.4839;-41.3818;0.7471;4.3726;-84.9683;34.9800 
920.921;0.1182;-0.4819;0.7549;-86.2427;8.4839;-41.3818;0.2032;4.3781;-85.1660;34.9800 
920.921;0.1182;-0.4819;0.7549;-86.2427;8.4839;-41.3818;-0.3296;4.3835;-85.3638;35.0700 
920.921;0.1182;-0.4819;0.7549;-86.2427;8.4839;-41.3818;-0.8734;4.3835;-85.5670;35.0700 
920.921;0.1182;-0.4819;0.7549;-86.2427;8.4839;-41.3818;-1.4117;4.3835;-85.7703;35.0700 
920.921;0.1182;-0.4819;0.7549;-86.2427;8.4839;-41.3818;-1.9446;4.3781;-85.9735;34.9600 
920.921;0.1182;-0.4819;0.7549;-86.2427;8.4839;-41.3818;-2.4829;4.3781;-86.1768;34.9600 
920.921;0.1182;-0.4819;0.7549;-86.2427;8.4839;-41.3818;-3.0157;4.3726;-86.3800;35.0700 
920.921;0.5298;-0.5703;0.8940;-19.8975;-42.0532;-23.3154;-3.2080;4.0649;-86.4954;35.0700 
920.921;0.5298;-0.5703;0.8940;-19.8975;-42.0532;-23.3154;-3.3948;3.7573;-86.6107;35.0600 
920.921;0.5298;-0.5703;0.8940;-19.8975;-42.0532;-23.3154;-3.5815;3.4497;-86.7261;35.0600 
920.921;0.5298;-0.5703;0.8940;-19.8975;-42.0532;-23.3154;-3.7683;3.1476;-86.8414;34.9700 
920.921;0.5298;-0.5703;0.8940;-19.8975;-42.0532;-23.3154;-3.9551;2.8400;-86.9568;34.9700 
920.931;0.5298;-0.5703;0.8940;-19.8975;-42.0532;-23.3154;-4.1364;2.5378;-87.0667;34.9000 
920.931;0.5298;-0.5703;0.8940;-19.8975;-42.0532;-23.3154;-4.3231;2.2302;-87.1820;34.9000 
920.941;0.5298;-0.5703;0.8940;-19.8975;-42.0532;-23.3154;-4.5044;1.9281;-87.2919;34.9600 
920.941;0.7495;-0.4092;0.7705;72.6318;-77.6978;-12.2070;-4.2078;1.4172;-87.3413;34.9600 
920.951;0.7495;-0.4092;0.7705;72.6318;-77.6978;-12.2070;-3.9111;0.9009;-87.4017;35.0600 
920.951;0.7495;-0.4092;0.7705;72.6318;-77.6978;-12.2070;-3.6145;0.3900;-87.4567;35.0600 
920.961;0.7495;-0.4092;0.7705;72.6318;-77.6978;-12.2070;-3.3179;-0.1099;-87.5171;35.0000 
920.961;0.7495;-0.4092;0.7705;72.6318;-77.6978;-12.2070;-3.0267;-0.6152;-87.5830;35.0000 
920.971;0.7495;-0.4092;0.7705;72.6318;-77.6978;-12.2070;-2.7301;-1.1206;-87.6489;35.0000 
920.971;0.7495;-0.4092;0.7705;72.6318;-77.6978;-12.2070;-2.4390;-1.6260;-87.7203;34.9900 
920.991;0.7495;-0.4092;0.7705;72.6318;-77.6978;-12.2070;-2.1478;-2.1259;-87.7917;34.9900 
920.991;0.6797;-0.0845;0.5479;167.4805;-91.8579;-4.6997;-1.3403;-2.7246;-87.8302;35.0100 
921.011;0.6797;-0.0845;0.5479;167.4805;-91.8579;-4.6997;-0.5328;-3.3234;-87.8741;35.0100 
921.011;0.6797;-0.0845;0.5479;167.4805;-91.8579;-4.6997;0.2692;-3.9166;-87.9291;35.0500 
921.111;0.6797;-0.0845;0.5479;167.4805;-91.8579;-4.6997;1.0712;-4.5099;-87.9895;35.0500 
921.111;0.6797;-0.0845;0.5479;167.4805;-91.8579;-4.6997;1.8732;-5.0977;-88.0609;34.9500 
921.131;0.6797;-0.0845;0.5479;167.4805;-91.8579;-4.6997;2.6752;-5.6854;-88.1378;34.9500 
921.131;0.6797;-0.0845;0.5479;167.4805;-91.8579;-4.6997;3.4772;-6.2677;-88.2202;35.0700 
921.131;0.6797;-0.0845;0.5479;167.4805;-91.8579;-4.6997;4.2792;-6.8500;-88.3081;35.0700 
921.131;0.6660;0.1880;0.3560;241.0278;-88.3789;2.5635;5.5151;-7.4487;-88.3630;35.0100 
921.131;0.6660;0.1880;0.3560;241.0278;-88.3789;2.5635;6.7456;-8.0420;-88.4290;35.0100 
921.131;0.6660;0.1880;0.3560;241.0278;-88.3789;2.5635;7.9761;-8.6298;-88.5059;35.0400 
921.131;0.6660;0.1880;0.3560;241.0278;-88.3789;2.5635;9.2065;-9.2230;-88.5992;35.0400 
921.131;0.6660;0.1880;0.3560;241.0278;-88.3789;2.5635;10.4315;-9.8053;-88.6981;34.9400 
921.131;0.6660;0.1880;0.3560;241.0278;-88.3789;2.5635;11.6620;-10.3876;-88.8135;34.9400 
921.151;0.6660;0.1880;0.3560;241.0278;-88.3789;2.5635;12.8870;-10.9644;-88.9398;34.9400 
921.151;0.6660;0.1880;0.3560;241.0278;-88.3789;2.5635;14.1119;-11.5411;-89.0771;34.9700 
921.161;0.5249;0.3110;0.0830;282.7148;-78.7354;10.7422;15.6335;-12.0905;-89.1431;34.9700 
921.161;0.5249;0.3110;0.0830;282.7148;-78.7354;10.7422;17.1497;-12.6398;-89.2255;34.9400 
921.171;0.5249;0.3110;0.0830;282.7148;-78.7354;10.7422;18.6658;-13.1836;-89.3188;34.9400 
921.171;0.5249;0.3110;0.0830;282.7148;-78.7354;10.7422;20.1819;-13.7274;-89.4342;35.0500 
921.181;0.5249;0.3110;0.0830;282.7148;-78.7354;10.7422;21.6925;-14.2657;-89.5605;35.0500 
921.181;0.5249;0.3110;0.0830;282.7148;-78.7354;10.7422;23.2086;-14.8041;-89.7034;35.0700 
921.191;0.5249;0.3110;0.0830;282.7148;-78.7354;10.7422;24.7192;-15.3314;-89.8572;35.0700 
921.191;0.5249;0.3110;0.0830;282.7148;-78.7354;10.7422;26.2354;-15.8588;-90.0275;35.0100 
921.191;0.4243;0.3486;-0.1211;298.9502;-69.5190;16.7236;27.9327;-16.3147;-90.0879;35.0100 
921.191;0.4243;0.3486;-0.1211;298.9502;-69.5190;16.7236;29.6301;-16.7651;-90.1648;35.0000 
921.201;0.4243;0.3486;-0.1211;298.9502;-69.5190;16.7236;31.3275;-17.2156;-90.2582;35.0000 
921.201;0.4243;0.3486;-0.1211;298.9502;-69.5190;16.7236;33.0249;-17.6605;-90.3680;34.9900 
921.211;0.4243;0.3486;-0.1211;298.9502;-69.5190;16.7236;34.7223;-18.1055;-90.4944;34.9900 
921.211;0.4243;0.3486;-0.1211;298.9502;-69.5190;16.7236;36.4197;-18.5449;-90.6317;35.0400 
921.221;0.4243;0.3486;-0.1211;298.9502;-69.5190;16.7236;38.1171;-18.9789;-90.7855;35.0400 
921.221;0.4243;0.3486;-0.1211;298.9502;-69.5190;16.7236;39.8145;-19.4073;-90.9503;35.0400 
921.221;0.4204;0.5073;-0.3853;301.5137;-62.3779;17.1509;41.5942;-19.7260;-91.0602;34.9700 
921.221;0.4204;0.5073;-0.3853;301.5137;-62.3779;17.1509;43.3740;-20.0391;-91.1810;34.9700 
921.311;0.4204;0.5073;-0.3853;301.5137;-62.3779;17.1509;45.1593;-20.3412;-91.3074;35.0600 
921.311;0.4204;0.5073;-0.3853;301.5137;-62.3779;17.1509;46.9391;-20.6433;-91.4502;35.0600 
921.321;0.4204;0.5073;-0.3853;301.5137;-62.3779;17.1509;48.7189;-20.9399;-91.6040;34.9900 
921.321;0.4204;0.5073;-0.3853;301.5137;-62.3779;17.1509;50.5042;-21.2311;-91.7633;34.9900 
921.321;0.4204;0.5073;-0.3853;301.5137;-62.3779;17.1509;52.2839;-21.5167;-91.9336;35.0900 
921.321;0.4204;0.5073;-0.3853;301.5137;-62.3779;17.1509;54.0692;-21.7914;-92.1149;35.0900 
921.321;0.5073;0.7314;-0.5664;294.0674;-57.0068;7.1411;55.8215;-21.9891;-92.3126;35.0100 
921.321;0.5073;0.7314;-0.5664;294.0674;-57.0068;7.1411;57.5739;-22.1814;-92.5214;35.0100 
921.321;0.5073;0.7314;-0.5664;294.0674;-57.0068;7.1411;59.3262;-22.3627;-92.7301;35.0000 
921.321;0.5073;0.7314;-0.5664;294.0674;-57.0068;7.1411;61.0785;-22.5385;-92.9443;35.0000 
921.321;0.5073;0.7314;-0.5664;294.0674;-57.0068;7.1411;62.8253;-22.7032;-93.1641;35.0600 
921.321;0.5073;0.7314;-0.5664;294.0674;-57.0068;7.1411;64.5721;-22.8625;-93.3893;35.0600 
921.321;0.5073;0.7314;-0.5664;294.0674;-57.0068;7.1411;66.3190;-23.0164;-93.6200;35.0600 
921.321;0.5073;0.7314;-0.5664;294.0674;-57.0068;7.1411;68.0658;-23.1592;-93.8507;34.9900 
921.321;0.5781;0.8843;-0.6685;269.1650;-49.6826;-15.8691;69.6863;-23.1702;-94.0924;34.9900 
921.321;0.5781;0.8843;-0.6685;269.1650;-49.6826;-15.8691;71.3013;-23.1702;-94.3341;35.0100 
921.321;0.5781;0.8843;-0.6685;269.1650;-49.6826;-15.8691;72.9163;-23.1647;-94.5703;35.0100 
921.321;0.5781;0.8843;-0.6685;269.1650;-49.6826;-15.8691;74.5203;-23.1537;-94.8065;34.9900 
921.321;0.5781;0.8843;-0.6685;269.1650;-49.6826;-15.8691;76.1243;-23.1317;-95.0427;34.9900 
921.321;0.5781;0.8843;-0.6685;269.1650;-49.6826;-15.8691;77.7228;-23.1042;-95.2734;35.0400 
921.321;0.5781;0.8843;-0.6685;269.1650;-49.6826;-15.8691;79.3158;-23.0658;-95.4987;35.0400 
921.321;0.5781;0.8843;-0.6685;269.1650;-49.6826;-15.8691;80.9088;-23.0219;-95.7239;35.0100 
921.321;0.5718;1.1597;-0.7046;221.9238;-36.2549;-47.3633;82.2217;-22.8076;-95.9216;35.0100 
921.331;0.5718;1.1597;-0.7046;221.9238;-36.2549;-47.3633;83.5291;-22.5824;-96.1139;35.0000 
921.331;0.5718;1.1597;-0.7046;221.9238;-36.2549;-47.3633;84.8309;-22.3572;-96.2952;35.0000 
921.331;0.5718;1.1597;-0.7046;221.9238;-36.2549;-47.3633;86.1273;-22.1265;-96.4709;34.9700 
921.331;0.5718;1.1597;-0.7046;221.9238;-36.2549;-47.3633;87.4127;-21.8903;-96.6412;34.9700 
921.341;0.5718;1.1597;-0.7046;221.9238;-36.2549;-47.3633;88.6926;-21.6541;-96.8005;34.9900 
921.341;0.5718;1.1597;-0.7046;221.9238;-36.2549;-47.3633;89.9725;-21.4124;-96.9543;34.9900 
921.341;0.5718;1.1597;-0.7046;221.9238;-36.2549;-47.3633;91.2360;-21.1652;-97.1027;34.9900 
921.341;0.4482;1.0142;-0.5649;155.7617;-16.2354;-79.4067;92.1259;-20.7587;-97.1356;35.0200 
921.341;0.4482;1.0142;-0.5649;155.7617;-16.2354;-79.4067;93.0048;-20.3522;-97.1631;35.0200 
921.341;0.4482;1.0142;-0.5649;155.7617;-16.2354;-79.4067;93.8782;-19.9457;-97.1851;35.0100 
921.341;0.4482;1.0142;-0.5649;155.7617;-16.2354;-79.4067;94.7461;-19.5392;-97.1960;35.0100 
921.351;0.4482;1.0142;-0.5649;155.7617;-16.2354;-79.4067;95.6140;-19.1327;-97.2015;35.0300 
921.351;0.4482;1.0142;-0.5649;155.7617;-16.2354;-79.4067;96.4709;-18.7317;-97.1960;35.0300 
921.351;0.4482;1.0142;-0.5649;155.7617;-16.2354;-79.4067;97.3279;-18.3252;-97.1851;35.0100 
921.351;0.4482;1.0142;-0.5649;155.7617;-16.2354;-79.4067;98.1793;-17.9242;-97.1686;35.0100 
921.351;0.1479;1.0073;-0.4463;82.5806;7.5073;-99.6094;98.6023;-17.4023;-97.0258;35.0200 
921.361;0.1479;1.0073;-0.4463;82.5806;7.5073;-99.6094;99.0198;-16.8860;-96.8774;35.0200 
921.361;0.1479;1.0073;-0.4463;82.5806;7.5073;-99.6094;99.4427;-16.3696;-96.7236;34.9800 
921.361;0.1479;1.0073;-0.4463;82.5806;7.5073;-99.6094;99.8602;-15.8533;-96.5698;34.9800 
921.361;0.1479;1.0073;-0.4463;82.5806;7.5073;-99.6094;100.2777;-15.3479;-96.4105;34.9900 
921.361;0.1479;1.0073;-0.4463;82.5806;7.5073;-99.6094;100.6952;-14.8370;-96.2512;34.9900 
921.361;0.1479;1.0073;-0.4463;82.5806;7.5073;-99.6094;101.1072;-14.3317;-96.0864;34.9900 
921.361;0.1479;1.0073;-0.4463;82.5806;7.5073;-99.6094;101.5247;-13.8263;-95.9161;34.9900 
921.381;-0.0640;0.8247;-0.3193;21.4233;28.6255;-99.1211;101.5961;-13.3154;-95.6470;34.9900 
921.381;-0.0640;0.8247;-0.3193;21.4233;28.6255;-99.1211;101.6730;-12.8101;-95.3778;35.0500 
921.381;-0.0640;0.8247;-0.3193;21.4233;28.6255;-99.1211;101.7499;-12.2992;-95.1086;35.0500 
921.381;-0.0640;0.8247;-0.3193;21.4233;28.6255;-99.1211;101.8323;-11.7938;-94.8395;34.9900 
921.391;-0.0640;0.8247;-0.3193;21.4233;28.6255;-99.1211;101.9147;-11.2939;-94.5703;34.9900 
921.391;-0.0640;0.8247;-0.3193;21.4233;28.6255;-99.1211;101.9971;-10.7886;-94.3011;35.0200 
921.401;-0.0640;0.8247;-0.3193;21.4233;28.6255;-99.1211;102.0850;-10.2887;-94.0375;35.0200 
921.401;-0.0640;0.8247;-0.3193;21.4233;28.6255;-99.1211;102.1729;-9.7943;-93.7683;35.0200 
921.401;-0.2505;0.7944;-0.2300;-16.5405;41.5649;-78.1250;102.0520;-9.3768;-93.4662;35.0200 
921.401;-0.2505;0.7944;-0.2300;-16.5405;41.5649;-78.1250;101.9312;-8.9594;-93.1696;34.9600 
921.401;-0.2505;0.7944;-0.2300;-16.5405;41.5649;-78.1250;101.8158;-8.5419;-92.8674;34.9600 
921.401;-0.2505;0.7944;-0.2300;-16.5405;41.5649;-78.1250;101.7004;-8.1299;-92.5763;34.9900 
921.411;-0.2505;0.7944;-0.2300;-16.5405;41.5649;-78.1250;101.5906;-7.7124;-92.2797;34.9900 
921.411;-0.2505;0.7944;-0.2300;-16.5405;41.5649;-78.1250;101.4862;-7.3004;-91.9885;34.9900 
921.421;-0.2505;0.7944;-0.2300;-16.5405;41.5649;-78.1250;101.3763;-6.8884;-91.6974;34.9900 
921.421;-0.2505;0.7944;-0.2300;-16.5405;41.5649;-78.1250;101.2775;-6.4764;-91.4117;35.0000 
921.421;-0.3394;0.7607;-0.1714;-32.6538;45.3491;-42.5415;101.0852;-6.2238;-91.1481;35.0000 
921.421;-0.3394;0.7607;-0.1714;-32.6538;45.3491;-42.5415;100.8984;-5.9711;-90.8789;35.0000 
921.501;-0.3394;0.7607;-0.1714;-32.6538;45.3491;-42.5415;100.7172;-5.7129;-90.6152;35.0200 
921.501;-0.3394;0.7607;-0.1714;-32.6538;45.3491;-42.5415;100.5359;-5.4602;-90.3571;35.0200 
921.501;-0.3394;0.7607;-0.1714;-32.6538;45.3491;-42.5415;100.3546;-5.2075;-90.0989;35.0100 
921.501;-0.3394;0.7607;-0.1714;-32.6538;45.3491;-42.5415;100.1733;-4.9548;-89.8407;35.0100 
921.501;-0.3394;0.7607;-0.1714;-32.6538;45.3491;-42.5415;99.9976;-4.7021;-89.5825;34.9700 
921.501;-0.3394;0.7607;-0.1714;-32.6538;45.3491;-42.5415;99.8218;-4.4495;-89.3298;34.9700 
921.551;-0.3438;0.7749;-0.1279;-33.2642;41.9312;0.0610;99.6405;-4.4000;-89.1321;34.9900 
921.551;-0.3438;0.7749;-0.1279;-33.2642;41.9312;0.0610;99.4647;-4.3506;-88.9343;34.9900 
921.551;-0.3438;0.7749;-0.1279;-33.2642;41.9312;0.0610;99.2834;-4.3011;-88.7366;35.0200 
921.551;-0.3438;0.7749;-0.1279;-33.2642;41.9312;0.0610;99.1022;-4.2517;-88.5388;35.0200 
921.551;-0.3438;0.7749;-0.1279;-33.2642;41.9312;0.0610;98.9264;-4.2023;-88.3466;35.0500 
921.551;-0.3438;0.7749;-0.1279;-33.2642;41.9312;0.0610;98.7506;-4.1528;-88.1543;35.0500 
921.551;-0.3438;0.7749;-0.1279;-33.2642;41.9312;0.0610;98.5748;-4.1034;-87.9620;35.0300 
921.551;-0.3438;0.7749;-0.1279;-33.2642;41.9312;0.0610;98.3990;-4.0540;-87.7698;35.0300 
921.551;-0.1968;0.7842;-0.0723;-25.2686;33.9355;42.6025;98.2617;-4.2297;-87.6544;35.0300 
921.551;-0.1968;0.7842;-0.0723;-25.2686;33.9355;42.6025;98.1189;-4.4110;-87.5336;35.0100 
921.551;-0.1968;0.7842;-0.0723;-25.2686;33.9355;42.6025;97.9761;-4.5868;-87.4182;35.0100 
921.551;-0.1968;0.7842;-0.0723;-25.2686;33.9355;42.6025;97.8333;-4.7681;-87.3029;35.0500 
921.551;-0.1968;0.7842;-0.0723;-25.2686;33.9355;42.6025;97.6904;-4.9438;-87.1820;35.0500 
921.551;-0.1968;0.7842;-0.0723;-25.2686;33.9355;42.6025;97.5531;-5.1196;-87.0667;35.0100 
921.551;-0.1968;0.7842;-0.0723;-25.2686;33.9355;42.6025;97.4103;-5.2954;-86.9513;35.0100 
921.551;-0.1968;0.7842;-0.0723;-25.2686;33.9355;42.6025;97.2675;-5.4712;-86.8359;35.0400 
921.551;-0.0264;0.7793;-0.0410;-14.0991;23.8037;75.0732;97.1796;-5.8337;-86.7920;35.0400 
921.551;-0.0264;0.7793;-0.0410;-14.0991;23.8037;75.0732;97.0917;-6.1963;-86.7535;35.0600 
921.551;-0.0264;0.7793;-0.0410;-14.0991;23.8037;75.0732;97.0038;-6.5533;-86.7151;35.0600 
921.551;-0.0264;0.7793;-0.0410;-14.0991;23.8037;75.0732;96.9159;-6.9159;-86.6711;35.0100 
921.551;-0.0264;0.7793;-0.0410;-14.0991;23.8037;75.0732;96.8280;-7.2729;-86.6327;35.0100 
921.551;-0.0264;0.7793;-0.0410;-14.0991;23.8037;75.0732;96.7401;-7.6300;-86.5887;34.9800 
921.551;-0.0264;0.7793;-0.0410;-14.0991;23.8037;75.0732;96.6522;-7.9871;-86.5448;34.9800 
921.571;-0.0264;0.7793;-0.0410;-14.0991;23.8037;75.0732;96.5588;-8.3386;-86.5009;35.0400 
921.571;0.2290;0.8389;-0.0190;-3.7231;14.3433;89.7827;96.5204;-8.8110;-86.5283;35.0400 
921.571;0.2290;0.8389;-0.0190;-3.7231;14.3433;89.7827;96.4819;-9.2834;-86.5558;35.0400 
921.571;0.2290;0.8389;-0.0190;-3.7231;14.3433;89.7827;96.4435;-9.7504;-86.5833;34.9700 
921.571;0.2290;0.8389;-0.0190;-3.7231;14.3433;89.7827;96.4050;-10.2173;-86.6052;34.9700 
921.571;0.2290;0.8389;-0.0190;-3.7231;14.3433;89.7827;96.3611;-10.6842;-86.6327;34.9600 
921.571;0.2290;0.8389;-0.0190;-3.7231;14.3433;89.7827;96.3226;-11.1456;-86.6547;34.9600 
921.571;0.2290;0.8389;-0.0190;-3.7231;14.3433;89.7827;96.2842;-11.6071;-86.6766;34.9700 
921.571;0.2290;0.8389;-0.0190;-3.7231;14.3433;89.7827;96.2457;-12.0740;-86.6986;34.9700 
921.571;0.3770;0.8394;-0.0151;3.1738;7.4463;85.3271;96.2457;-12.5299;-86.7645;34.9600 
921.571;0.3770;0.8394;-0.0151;3.1738;7.4463;85.3271;96.2402;-12.9913;-86.8304;34.9600 
921.571;0.3770;0.8394;-0.0151;3.1738;7.4463;85.3271;96.2402;-13.4473;-86.8909;35.0200 
921.571;0.3770;0.8394;-0.0151;3.1738;7.4463;85.3271;96.2347;-13.9032;-86.9568;35.0200 
921.571;0.3770;0.8394;-0.0151;3.1738;7.4463;85.3271;96.2347;-14.3591;-87.0172;34.9600 
921.571;0.3770;0.8394;-0.0151;3.1738;7.4463;85.3271;96.2347;-14.8151;-87.0831;34.9600 
921.571;0.3770;0.8394;-0.0151;3.1738;7.4463;85.3271;96.2347;-15.2655;-87.1436;35.0300 
921.571;0.3770;0.8394;-0.0151;3.1738;7.4463;85.3271;96.2347;-15.7159;-87.2040;35.0300 
921.571;0.4644;0.9063;-0.0269;6.3477;3.6011;64.9414;96.2512;-16.0730;-87.2754;35.0000 
921.571;0.4644;0.9063;-0.0269;6.3477;3.6011;64.9414;96.2677;-16.4246;-87.3468;35.0000 
921.571;0.4644;0.9063;-0.0269;6.3477;3.6011;64.9414;96.2897;-16.7816;-87.4182;35.0000 
921.571;0.4644;0.9063;-0.0269;6.3477;3.6011;64.9414;96.3062;-17.1332;-87.4896;34.9600 
921.581;0.4644;0.9063;-0.0269;6.3477;3.6011;64.9414;96.3281;-17.4847;-87.5610;34.9600 
921.581;0.4644;0.9063;-0.0269;6.3477;3.6011;64.9414;96.3446;-17.8363;-87.6324;35.0000 
921.591;0.4644;0.9063;-0.0269;6.3477;3.6011;64.9414;96.3666;-18.1824;-87.7039;35.0000 
921.591;0.4644;0.9063;-0.0269;6.3477;3.6011;64.9414;96.3831;-18.5284;-87.7753;35.0400 
921.601;0.4438;0.9351;-0.0337;6.0425;2.2583;38.2690;96.4050;-18.7427;-87.8357;35.0400 
921.601;0.4438;0.9351;-0.0337;6.0425;2.2583;38.2690;96.4215;-18.9514;-87.8961;34.9600 
921.631;0.4438;0.9351;-0.0337;6.0425;2.2583;38.2690;96.4380;-19.1547;-87.9510;34.9600 
921.631;0.4438;0.9351;-0.0337;6.0425;2.2583;38.2690;96.4600;-19.3634;-88.0115;35.0400 
921.721;0.4438;0.9351;-0.0337;6.0425;2.2583;38.2690;96.4764;-19.5721;-88.0719;35.0400 
921.731;0.4438;0.9351;-0.0337;6.0425;2.2583;38.2690;96.4929;-19.7809;-88.1268;35.0700 
921.731;0.4438;0.9351;-0.0337;6.0425;2.2583;38.2690;96.5149;-19.9841;-88.1873;35.0700 
921.731;0.4438;0.9351;-0.0337;6.0425;2.2583;38.2690;96.5314;-20.1874;-88.2422;34.9600 
921.731;0.3896;0.9502;-0.0356;3.8452;2.0752;14.9536;96.5369;-20.2698;-88.2806;34.9600 
921.731;0.3896;0.9502;-0.0356;3.8452;2.0752;14.9536;96.5424;-20.3467;-88.3246;35.0000 
921.741;0.3896;0.9502;-0.0356;3.8452;2.0752;14.9536;96.5479;-20.4291;-88.3630;35.0000 
921.741;0.3896;0.9502;-0.0356;3.8452;2.0752;14.9536;96.5533;-20.5060;-88.4070;35.0000 
921.741;0.3896;0.9502;-0.0356;3.8452;2.0752;14.9536;96.5588;-20.5884;-88.4454;35.0500 
921.741;0.3896;0.9502;-0.0356;3.8452;2.0752;14.9536;96.5588;-20.6653;-88.4839;35.0500 
921.741;0.3896;0.9502;-0.0356;3.8452;2.0752;14.9536;96.5643;-20.7422;-88.5223;35.0100 
921.741;0.3896;0.9502;-0.0356;3.8452;2.0752;14.9536;96.5698;-20.8246;-88.5663;35.0100 
921.741;0.3276;0.9595;-0.0337;1.4648;1.7090;-0.9766;96.5643;-20.8081;-88.5938;35.0400 
921.741;0.3276;0.9595;-0.0337;1.4648;1.7090;-0.9766;96.5533;-20.7971;-88.6212;35.0400 
921.741;0.3276;0.9595;-0.0337;1.4648;1.7090;-0.9766;96.5424;-20.7861;-88.6542;34.9900 
921.741;0.3276;0.9595;-0.0337;1.4648;1.7090;-0.9766;96.5369;-20.7751;-88.6816;34.9900 
921.741;0.3276;0.9595;-0.0337;1.4648;1.7090;-0.9766;96.5259;-20.7642;-88.7091;35.0200 
921.741;0.3276;0.9595;-0.0337;1.4648;1.7090;-0.9766;96.5149;-20.7532;-88.7366;35.0200 
921.741;0.3276;0.9595;-0.0337;1.4648;1.7090;-0.9766;96.5094;-20.7422;-88.7695;35.0200 
921.761;0.3276;0.9595;-0.0337;1.4648;1.7090;-0.9766;96.4984;-20.7312;-88.7970;35.0200 
921.761;0.2788;0.9644;-0.0317;-0.1221;1.0986;-9.0942;96.4819;-20.6763;-88.8190;35.0200 
921.771;0.2788;0.9644;-0.0317;-0.1221;1.0986;-9.0942;96.4655;-20.6158;-88.8464;35.0200 
921.771;0.2788;0.9644;-0.0317;-0.1221;1.0986;-9.0942;96.4490;-20.5554;-88.8684;35.0300 
921.781;0.2788;0.9644;-0.0317;-0.1221;1.0986;-9.0942;96.4325;-20.4950;-88.8959;35.0300 
921.781;0.2788;0.9644;-0.0317;-0.1221;1.0986;-9.0942;96.4160;-20.4346;-88.9178;35.0300 
921.801;0.2788;0.9644;-0.0317;-0.1221;1.0986;-9.0942;96.3995;-20.3796;-88.9398;34.9700 
921.801;0.2788;0.9644;-0.0317;-0.1221;1.0986;-9.0942;96.3831;-20.3192;-88.9673;34.9700 
921.801;0.2788;0.9644;-0.0317;-0.1221;1.0986;-9.0942;96.3666;-20.2643;-88.9893;35.0100 
921.801;0.2490;0.9653;-0.0298;-0.9766;0.4883;-11.1084;96.3446;-20.1874;-89.0167;35.0100 
921.801;0.2490;0.9653;-0.0298;-0.9766;0.4883;-11.1084;96.3226;-20.1160;-89.0387;35.0500 
921.801;0.2490;0.9653;-0.0298;-0.9766;0.4883;-11.1084;96.3062;-20.0446;-89.0607;35.0500 
921.811;0.2490;0.9653;-0.0298;-0.9766;0.4883;-11.1084;96.2842;-19.9677;-89.0881;35.0400 
921.811;0.2490;0.9653;-0.0298;-0.9766;0.4883;-11.1084;96.2622;-19.8962;-89.1101;35.0400 
921.811;0.2490;0.9653;-0.0298;-0.9766;0.4883;-11.1084;96.2457;-19.8248;-89.1321;35.0300 
921.811;0.2490;0.9653;-0.0298;-0.9766;0.4883;-11.1084;96.2238;-19.7534;-89.1595;35.0300 
921.821;0.2490;0.9653;-0.0298;-0.9766;0.4883;-11.1084;96.2018;-19.6820;-89.1815;35.0000 
921.821;0.2368;0.9639;-0.0288;-1.1597;0.0000;-9.4604;96.1853;-19.6161;-89.2090;35.0000 
921.821;0.2368;0.9639;-0.0288;-1.1597;0.0000;-9.4604;96.1633;-19.5502;-89.2365;35.0100 
921.821;0.2368;0.9639;-0.0288;-1.1597;0.0000;-9.4604;96.1469;-19.4843;-89.2639;35.0100 
921.831;0.2368;0.9639;-0.0288;-1.1597;0.0000;-9.4604;96.1249;-19.4183;-89.2914;35.0100 
921.831;0.2368;0.9639;-0.0288;-1.1597;0.0000;-9.4604;96.1084;-19.3524;-89.3134;35.0500 
921.911;0.2368;0.9639;-0.0288;-1.1597;0.0000;-9.4604;96.0864;-19.2920;-89.3408;35.0500 
921.911;0.2368;0.9639;-0.0288;-1.1597;0.0000;-9.4604;96.0699;-19.2261;-89.3683;35.0500 
921.911;0.2368;0.9639;-0.0288;-1.1597;0.0000;-9.4604;96.0480;-19.1602;-89.3903;35.0500 
921.911;0.2373;0.9619;-0.0278;-0.9155;-0.1831;-6.1646;96.0315;-19.1107;-89.4177;35.0800 
921.931;0.2373;0.9619;-0.0278;-0.9155;-0.1831;-6.1646;96.0150;-19.0668;-89.4507;35.0800 
921.931;0.2373;0.9619;-0.0278;-0.9155;-0.1831;-6.1646;95.9985;-19.0173;-89.4781;35.0000 
921.931;0.2373;0.9619;-0.0278;-0.9155;-0.1831;-6.1646;95.9821;-18.9734;-89.5111;35.0000 
921.931;0.2373;0.9619;-0.0278;-0.9155;-0.1831;-6.1646;95.9656;-18.9240;-89.5386;35.0100 
921.931;0.2373;0.9619;-0.0278;-0.9155;-0.1831;-6.1646;95.9491;-18.8745;-89.5660;35.0100 
921.931;0.2373;0.9619;-0.0278;-0.9155;-0.1831;-6.1646;95.9326;-18.8306;-89.5935;34.9800 
921.931;0.2373;0.9619;-0.0278;-0.9155;-0.1831;-6.1646;95.9161;-18.7811;-89.6210;34.9800 
921.931;0.2437;0.9600;-0.0278;-0.5493;-0.2441;-2.8687;95.8997;-18.7537;-89.6539;34.9900 
921.931;0.2437;0.9600;-0.0278;-0.5493;-0.2441;-2.8687;95.8832;-18.7262;-89.6869;34.9900 
921.931;0.2437;0.9600;-0.0278;-0.5493;-0.2441;-2.8687;95.8722;-18.6987;-89.7198;35.0200 
921.931;0.2437;0.9600;-0.0278;-0.5493;-0.2441;-2.8687;95.8557;-18.6658;-89.7473;35.0200 
921.931;0.2437;0.9600;-0.0278;-0.5493;-0.2441;-2.8687;95.8447;-18.6383;-89.7803;35.0200 
921.931;0.2437;0.9600;-0.0278;-0.5493;-0.2441;-2.8687;95.8282;-18.6108;-89.8132;35.0100 
921.931;0.2437;0.9600;-0.0278;-0.5493;-0.2441;-2.8687;95.8118;-18.5834;-89.8407;35.0100 
921.931;0.2437;0.9600;-0.0278;-0.5493;-0.2441;-2.8687;95.8008;-18.5559;-89.8737;35.0300 
921.931;0.2524;0.9585;-0.0278;-0.1831;-0.2441;-0.4272;95.7898;-18.5394;-89.9066;35.0300 
921.931;0.2524;0.9585;-0.0278;-0.1831;-0.2441;-0.4272;95.7733;-18.5229;-89.9396;34.9700 
921.941;0.2524;0.9585;-0.0278;-0.1831;-0.2441;-0.4272;95.7623;-18.5120;-89.9725;34.9700 
921.941;0.2524;0.9585;-0.0278;-0.1831;-0.2441;-0.4272;95.7513;-18.4955;-90.0000;35.0200 
921.951;0.2524;0.9585;-0.0278;-0.1831;-0.2441;-0.4272;95.7404;-18.4790;-90.0330;35.0200 
921.951;0.2524;0.9585;-0.0278;-0.1831;-0.2441;-0.4272;95.7294;-18.4680;-90.0659;35.0200 
921.951;0.2524;0.9585;-0.0278;-0.1831;-0.2441;-0.4272;95.7184;-18.4515;-90.0989;35.0200 
921.951;0.2524;0.9585;-0.0278;-0.1831;-0.2441;-0.4272;95.7074;-18.4351;-90.1263;35.0500 
921.981;0.2593;0.9575;-0.0278;0.0000;-0.1221;0.9155;95.6964;-18.4296;-90.1593;35.0500 
921.981;0.2593;0.9575;-0.0278;0.0000;-0.1221;0.9155;95.6854;-18.4241;-90.1923;34.9900 
921.991;0.2593;0.9575;-0.0278;0.0000;-0.1221;0.9155;95.6744;-18.4186;-90.2197;34.9900 
921.991;0.2593;0.9575;-0.0278;0.0000;-0.1221;0.9155;95.6635;-18.4131;-90.2527;35.0700 
922.001;0.2593;0.9575;-0.0278;0.0000;-0.1221;0.9155;95.6525;-18.4076;-90.2856;35.0700 
922.001;0.2593;0.9575;-0.0278;0.0000;-0.1221;0.9155;95.6415;-18.3966;-90.3186;35.0700 
922.011;0.2593;0.9575;-0.0278;0.0000;-0.1221;0.9155;95.6305;-18.3911;-90.3461;35.0300 
922.021;0.2593;0.9575;-0.0278;0.0000;-0.1221;0.9155;95.6195;-18.3856;-90.3790;35.0300 
922.021;0.2642;0.9570;-0.0283;0.1221;-0.0610;1.4038;95.6085;-18.3856;-90.4065;35.0600 
922.121;0.2642;0.9570;-0.0283;0.1221;-0.0610;1.4038;95.5975;-18.3801;-90.4395;35.0600 
922.121;0.2642;0.9570;-0.0283;0.1221;-0.0610;1.4038;95.5865;-18.3801;-90.4724;35.0300 
922.131;0.2642;0.9570;-0.0283;0.1221;-0.0610;1.4038;95.5811;-18.3746;-90.4999;35.0300 
922.131;0.2642;0.9570;-0.0283;0.1221;-0.0610;1.4038;95.5701;-18.3746;-90.5328;35.0500 
922.131;0.2642;0.9570;-0.0283;0.1221;-0.0610;1.4038;95.5591;-18.3691;-90.5603;35.0500 
922.131;0.2642;0.9570;-0.0283;0.1221;-0.0610;1.4038;95.5481;-18.3691;-90.5878;35.0200 
922.131;0.2642;0.9570;-0.0283;0.1221;-0.0610;1.4038;95.5371;-18.3636;-90.6207;35.0200 
922.131;0.2666;0.9575;-0.0288;0.1831;0.0000;1.3428;95.5316;-18.3636;-90.6537;35.0100 
922.131;0.2666;0.9575;-0.0288;0.1831;0.0000;1.3428;95.5206;-18.3582;-90.6812;35.0100 
922.131;0.2666;0.9575;-0.0288;0.1831;0.0000;1.3428;95.5096;-18.3582;-90.7086;34.9900 
922.151;0.2666;0.9575;-0.0288;0.1831;0.0000;1.3428;95.4987;-18.3527;-90.7416;34.9900 
922.151;0.2666;0.9575;-0.0288;0.1831;0.0000;1.3428;95.4932;-18.3527;-90.7690;34.9200 
922.151;0.2666;0.9575;-0.0288;0.1831;0.0000;1.3428;95.4822;-18.3472;-90.7965;34.9200 
922.151;0.2666;0.9575;-0.0288;0.1831;0.0000;1.3428;95.4712;-18.3472;-90.8240;34.9200 
922.161;0.2666;0.9575;-0.0288;0.1831;0.0000;1.3428;95.4602;-18.3417;-90.8569;35.0300 
922.161;0.2671;0.9575;-0.0288;0.1831;0.0000;0.9155;95.4547;-18.3362;-90.8844;35.0300 
922.171;0.2671;0.9575;-0.0288;0.1831;0.0000;0.9155;95.4437;-18.3362;-90.9119;35.0500 
922.171;0.2671;0.9575;-0.0288;0.1831;0.0000;0.9155;95.4327;-18.3307;-90.9448;35.0500 
922.181;0.2671;0.9575;-0.0288;0.1831;0.0000;0.9155;95.4272;-18.3252;-90.9723;34.9700 
922.181;0.2671;0.9575;-0.0288;0.1831;0.0000;0.9155;95.4163;-18.3197;-90.9998;34.9700 
922.191;0.2671;0.9575;-0.0288;0.1831;0.0000;0.9155;95.4053;-18.3142;-91.0327;35.0500 
922.191;0.2671;0.9575;-0.0288;0.1831;0.0000;0.9155;95.3943;-18.3087;-91.0602;35.0500 
922.221;0.2671;0.9575;-0.0288;0.1831;0.0000;0.9155;95.3888;-18.3087;-91.0876;35.0100 
922.221;0.2666;0.9575;-0.0293;0.1221;0.0000;0.4883;95.3778;-18.2977;-91.1206;35.0100 
922.231;0.2666;0.9575;-0.0293;0.1221;0.0000;0.4883;95.3668;-18.2922;-91.1481;35.0300 
922.231;0.2666;0.9575;-0.0293;0.1221;0.0000;0.4883;95.3613;-18.2867;-91.1755;35.0300 
922.311;0.2666;0.9575;-0.0293;0.1221;0.0000;0.4883;95.3503;-18.2813;-91.2085;34.9900 
922.311;0.2666;0.9575;-0.0293;0.1221;0.0000;0.4883;95.3394;-18.2703;-91.2360;34.9900 
922.311;0.2666;0.9575;-0.0293;0.1221;0.0000;0.4883;95.3284;-18.2648;-91.2634;34.9900 
922.311;0.2666;0.9575;-0.0293;0.1221;0.0000;0.4883;95.3229;-18.2593;-91.2909;35.0500 
922.331;0.2666;0.9575;-0.0293;0.1221;0.0000;0.4883;95.3119;-18.2538;-91.3184;35.0500 
922.331;0.2651;0.9575;-0.0293;0.0610;0.0000;0.1221;95.3009;-18.2428;-91.3458;35.0200 
922.331;0.2651;0.9575;-0.0293;0.0610;0.0000;0.1221;95.2954;-18.2373;-91.3733;35.0200 
922.331;0.2651;0.9575;-0.0293;0.0610;0.0000;0.1221;95.2844;-18.2263;-91.4008;35.0500 
922.331;0.2651;0.9575;-0.0293;0.0610;0.0000;0.1221;95.2734;-18.2208;-91.4282;35.0500 
922.331;0.2651;0.9575;-0.0293;0.0610;0.0000;0.1221;95.2625;-18.2098;-91.4502;35.0600 
922.331;0.2651;0.9575;-0.0293;0.0610;0.0000;0.1221;95.2570;-18.2043;-91.4777;35.0600 
922.331;0.2651;0.9575;-0.0293;0.0610;0.0000;0.1221;95.2460;-18.1934;-91.5051;35.0500 
922.331;0.2651;0.9575;-0.0293;0.0610;0.0000;0.1221;95.2350;-18.1879;-91.5326;35.0500 
922.331;0.2642;0.9580;-0.0293;0.0610;0.0000;-0.0610;95.2240;-18.1769;-91.5601;34.9900 
922.331;0.2642;0.9580;-0.0293;0.0610;0.0000;-0.0610;95.2185;-18.1659;-91.5875;34.9900 
922.351;0.2642;0.9580;-0.0293;0.0610;0.0000;-0.0610;95.2075;-18.1549;-91.6150;35.0000 
922.351;0.2642;0.9580;-0.0293;0.0610;0.0000;-0.0610;95.1965;-18.1494;-91.6425;35.0000 
922.351;0.2642;0.9580;-0.0293;0.0610;0.0000;-0.0610;95.1855;-18.1384;-91.6699;35.0800 
922.351;0.2642;0.9580;-0.0293;0.0610;0.0000;-0.0610;95.1801;-18.1274;-91.6974;35.0800 
922.361;0.2642;0.9580;-0.0293;0.0610;0.0000;-0.0610;95.1691;-18.1219;-91.7249;35.0800 
922.361;0.2642;0.9580;-0.0293;0.0610;0.0000;-0.0610;95.1581;-18.1110;-91.7523;35.0500 
922.371;0.2632;0.9580;-0.0293;0.0000;0.0000;-0.1831;95.1526;-18.1000;-91.7798;35.0500 
922.371;0.2632;0.9580;-0.0293;0.0000;0.0000;-0.1831;95.1416;-18.0890;-91.8073;34.9600 
922.381;0.2632;0.9580;-0.0293;0.0000;0.0000;-0.1831;95.1306;-18.0835;-91.8347;34.9600 
922.381;0.2632;0.9580;-0.0293;0.0000;0.0000;-0.1831;95.1196;-18.0725;-91.8622;35.0300 
922.401;0.2632;0.9580;-0.0293;0.0000;0.0000;-0.1831;95.1141;-18.0615;-91.8896;35.0300 
922.401;0.2632;0.9580;-0.0293;0.0000;0.0000;-0.1831;95.1031;-18.0505;-91.9171;35.0600 
922.401;0.2632;0.9580;-0.0293;0.0000;0.0000;-0.1831;95.0922;-18.0396;-91.9446;35.0600 
922.401;0.2632;0.9580;-0.0293;0.0000;0.0000;-0.1831;95.0812;-18.0341;-91.9666;35.0200 
922.421;0.2627;0.9580;-0.0293;0.0000;0.0000;-0.1831;95.0757;-18.0231;-91.9940;35.0200 
922.421;0.2627;0.9580;-0.0293;0.0000;0.0000;-0.1831;95.0647;-18.0121;-92.0215;34.9700 
922.421;0.2627;0.9580;-0.0293;0.0000;0.0000;-0.1831;95.0537;-18.0011;-92.0490;34.9700 
922.421;0.2627;0.9580;-0.0293;0.0000;0.0000;-0.1831;95.0482;-17.9956;-92.0764;35.0300 
922.501;0.2627;0.9580;-0.0293;0.0000;0.0000;-0.1831;95.0372;-17.9846;-92.0984;35.0300 
922.501;0.2627;0.9580;-0.0293;0.0000;0.0000;-0.1831;95.0262;-17.9736;-92.1259;35.0600 
922.511;0.2627;0.9580;-0.0293;0.0000;0.0000;-0.1831;95.0208;-17.9626;-92.1533;35.0600 
922.511;0.2627;0.9580;-0.0293;0.0000;0.0000;-0.1831;95.0098;-17.9572;-92.1808;35.0600 
922.511;0.2622;0.9580;-0.0288;0.0000;0.0000;-0.1221;94.9988;-17.9462;-92.2028;35.0800 
922.511;0.2622;0.9580;-0.0288;0.0000;0.0000;-0.1221;94.9933;-17.9352;-92.2302;35.0800 
922.511;0.2622;0.9580;-0.0288;0.0000;0.0000;-0.1221;94.9823;-17.9297;-92.2577;34.9700 
922.511;0.2622;0.9580;-0.0288;0.0000;0.0000;-0.1221;94.9713;-17.9187;-92.2797;34.9700 
922.511;0.2622;0.9580;-0.0288;0.0000;0.0000;-0.1221;94.9658;-17.9077;-92.3071;35.0200 
922.511;0.2622;0.9580;-0.0288;0.0000;0.0000;-0.1221;94.9548;-17.9022;-92.3291;35.0200 
922.511;0.2622;0.9580;-0.0288;0.0000;0.0000;-0.1221;94.9438;-17.8912;-92.3566;34.9600 
922.511;0.2622;0.9580;-0.0288;0.0000;0.0000;-0.1221;94.9384;-17.8802;-92.3840;34.9600 
922.511;0.2627;0.9580;-0.0288;0.0000;0.0000;-0.0610;94.9274;-17.8748;-92.4060;35.0600 
922.520;0.2627;0.9580;-0.0288;0.0000;0.0000;-0.0610;94.9164;-17.8638;-92.4335;35.0600 
922.520;0.2627;0.9580;-0.0288;0.0000;0.0000;-0.0610;94.9109;-17.8583;-92.4609;34.9700 
922.531;0.2627;0.9580;-0.0288;0.0000;0.0000;-0.0610;94.8999;-17.8473;-92.4829;34.9700 
922.531;0.2627;0.9580;-0.0288;0.0000;0.0000;-0.0610;94.8889;-17.8363;-92.5104;35.0600 
922.550;0.2627;0.9580;-0.0288;0.0000;0.0000;-0.0610;94.8834;-17.8308;-92.5323;35.0600 
922.550;0.2627;0.9580;-0.0288;0.0000;0.0000;-0.0610;94.8724;-17.8198;-92.5598;35.0500 
922.550;0.2627;0.9580;-0.0288;0.0000;0.0000;-0.0610;94.8615;-17.8143;-92.5818;35.0500 
922.550;0.2627;0.9580;-0.0283;0.0000;0.0000;0.0000;94.8560;-17.8033;-92.6093;35.0500 
922.571;0.2627;0.9580;-0.0283;0.0000;0.0000;0.0000;94.8450;-17.7979;-92.6312;35.0300 
922.571;0.2627;0.9580;-0.0283;0.0000;0.0000;0.0000;94.8395;-17.7869;-92.6587;35.0300 
922.590;0.2627;0.9580;-0.0283;0.0000;0.0000;0.0000;94.8285;-17.7814;-92.6807;35.0100 
922.590;0.2627;0.9580;-0.0283;0.0000;0.0000;0.0000;94.8175;-17.7759;-92.7026;35.0100 
922.601;0.2627;0.9580;-0.0283;0.0000;0.0000;0.0000;94.8120;-17.7649;-92.7301;35.0100 
922.601;0.2627;0.9580;-0.0283;0.0000;0.0000;0.0000;94.8010;-17.7594;-92.7521;35.0100 
922.700;0.2627;0.9580;-0.0283;0.0000;0.0000;0.0000;94.7900;-17.7484;-92.7740;34.9900 
922.700;0.2627;0.9580;-0.0278;0.0000;0.0000;0.0000;94.7845;-17.7429;-92.7960;34.9900 
922.720;0.2627;0.9580;-0.0278;0.0000;0.0000;0.0000;94.7736;-17.7319;-92.8180;34.9900 
922.720;0.2627;0.9580;-0.0278;0.0000;0.0000;0.0000;94.7681;-17.7264;-92.8455;34.9900 
922.720;0.2627;0.9580;-0.0278;0.0000;0.0000;0.0000;94.7571;-17.7155;-92.8674;35.0700 
922.720;0.2627;0.9580;-0.0278;0.0000;0.0000;0.0000;94.7461;-17.7100;-92.8894;35.0700 
922.720;0.2627;0.9580;-0.0278;0.0000;0.0000;0.0000;94.7406;-17.7045;-92.9114;35.0600 
922.720;0.2627;0.9580;-0.0278;0.0000;0.0000;0.0000;94.7296;-17.6935;-92.9333;35.0600 
922.720;0.2627;0.9580;-0.0278;0.0000;0.0000;0.0000;94.7241;-17.6880;-92.9553;35.0600 
922.720;0.2632;0.9580;-0.0283;0.0000;0.0000;0.0000;94.7131;-17.6770;-92.9773;35.0700 
922.720;0.2632;0.9580;-0.0283;0.0000;0.0000;0.0000;94.7021;-17.6715;-92.9993;35.0700 
922.720;0.2632;0.9580;-0.0283;0.0000;0.0000;0.0000;94.6967;-17.6660;-93.0212;35.0300 
922.720;0.2632;0.9580;-0.0283;0.0000;0.0000;0.0000;94.6857;-17.6550;-93.0432;35.0300 
922.720;0.2632;0.9580;-0.0283;0.0000;0.0000;0.0000;94.6802;-17.6495;-93.0652;34.9700 
922.720;0.2632;0.9580;-0.0283;0.0000;0.0000;0.0000;94.6692;-17.6440;-93.0872;34.9700 
922.720;0.2632;0.9580;-0.0283;0.0000;0.0000;0.0000;94.6637;-17.6331;-93.1091;34.9800 
922.720;0.2632;0.9580;-0.0283;0.0000;0.0000;0.0000;94.6527;-17.6276;-93.1311;34.9800 
922.720;0.2632;0.9580;-0.0283;0.0000;0.0000;0.0000;94.6472;-17.6221;-93.1531;34.9600 
922.720;0.2632;0.9580;-0.0283;0.0000;0.0000;0.0000;94.6362;-17.6111;-93.1750;34.9600 
922.720;0.2632;0.9580;-0.0283;0.0000;0.0000;0.0000;94.6307;-17.6056;-93.1970;35.0500 
922.720;0.2632;0.9580;-0.0283;0.0000;0.0000;0.0000;94.6198;-17.6001;-93.2190;35.0500 
922.720;0.2632;0.9580;-0.0283;0.0000;0.0000;0.0000;94.6088;-17.5891;-93.2410;35.0100 
922.720;0.2632;0.9580;-0.0283;0.0000;0.0000;0.0000;94.6033;-17.5836;-93.2629;35.0100 
922.720;0.2632;0.9580;-0.0283;0.0000;0.0000;0.0000;94.5923;-17.5781;-93.2849;34.9800 
922.720;0.2632;0.9580;-0.0283;0.0000;0.0000;0.0000;94.5868;-17.5671;-93.3069;34.9800 
922.720;0.2632;0.9580;-0.0288;0.0000;0.0000;0.0000;94.5758;-17.5616;-93.3289;34.9800 
922.720;0.2632;0.9580;-0.0288;0.0000;0.0000;0.0000;94.5703;-17.5562;-93.3508;35.0100 
922.720;0.2632;0.9580;-0.0288;0.0000;0.0000;0.0000;94.5593;-17.5452;-93.3728;35.0100 
922.720;0.2632;0.9580;-0.0288;0.0000;0.0000;0.0000;94.5538;-17.5397;-93.3948;35.0600 
922.720;0.2632;0.9580;-0.0288;0.0000;0.0000;0.0000;94.5483;-17.5342;-93.4167;35.0600 
922.720;0.2632;0.9580;-0.0288;0.0000;0.0000;0.0000;94.5374;-17.5287;-93.4332;35.0800 
922.720;0.2632;0.9580;-0.0288;0.0000;0.0000;0.0000;94.5319;-17.5177;-93.4552;35.0800 
922.740;0.2632;0.9580;-0.0288;0.0000;0.0000;0.0000;94.5209;-17.5122;-93.4772;35.0500 
922.740;0.2637;0.9580;-0.0288;0.0000;0.0000;0.0000;94.5154;-17.5067;-93.4991;35.0500 
922.740;0.2637;0.9580;-0.0288;0.0000;0.0000;0.0000;94.5044;-17.5012;-93.5156;35.0100 
922.760;0.2637;0.9580;-0.0288;0.0000;0.0000;0.0000;94.4989;-17.4902;-93.5376;35.0100 
922.760;0.2637;0.9580;-0.0288;0.0000;0.0000;0.0000;94.4879;-17.4847;-93.5596;34.9800 
922.760;0.2637;0.9580;-0.0288;0.0000;0.0000;0.0000;94.4824;-17.4792;-93.5815;34.9800 
922.760;0.2637;0.9580;-0.0288;0.0000;0.0000;0.0000;94.4714;-17.4738;-93.5980;34.9900 
922.760;0.2637;0.9580;-0.0288;0.0000;0.0000;0.0000;94.4659;-17.4628;-93.6200;34.9900 
922.760;0.2637;0.9580;-0.0288;0.0000;0.0000;0.0000;94.4604;-17.4573;-93.6420;35.0600 
922.760;0.2637;0.9580;-0.0288;0.0000;0.0000;0.0000;94.4495;-17.4518;-93.6584;35.0600 
922.780;0.2637;0.9580;-0.0288;0.0000;0.0000;0.0000;94.4440;-17.4463;-93.6804;35.0600 
922.780;0.2637;0.9580;-0.0288;0.0000;0.0000;0.0000;94.4330;-17.4353;-93.7024;34.9900 
922.780;0.2637;0.9580;-0.0288;0.0000;0.0000;0.0000;94.4275;-17.4298;-93.7244;34.9900 
922.780;0.2637;0.9580;-0.0288;0.0000;0.0000;0.0000;94.4165;-17.4243;-93.7463;34.9600 
922.780;0.2637;0.9580;-0.0288;0.0000;0.0000;0.0000;94.4110;-17.4188;-93.7628;34.9600 
922.780;0.2637;0.9580;-0.0288;0.0000;0.0000;0.0000;94.4055;-17.4133;-93.7848;35.0400 
922.780;0.2637;0.9580;-0.0288;0.0000;0.0000;0.0000;94.3945;-17.4023;-93.8068;35.0400 
922.780;0.2637;0.9580;-0.0288;0.0000;0.0000;0.0000;94.3890;-17.3969;-93.8287;34.9900 
922.780;0.2637;0.9580;-0.0288;0.0000;0.0000;0.0000;94.3781;-17.3914;-93.8507;34.9900 
922.780;0.2637;0.9580;-0.0288;0.0000;0.0000;0.0000;94.3726;-17.3859;-93.8727;35.0300 
922.810;0.2637;0.9580;-0.0288;0.0000;0.0000;0.0000;94.3671;-17.3804;-93.8947;35.0300 
922.810;0.2637;0.9580;-0.0288;0.0000;0.0000;0.0000;94.3561;-17.3749;-93.9166;35.0200 
922.820;0.2637;0.9580;-0.0288;0.0000;0.0000;0.0000;94.3506;-17.3639;-93.9386;35.0200 
922.820;0.2637;0.9580;-0.0288;0.0000;0.0000;0.0000;94.3451;-17.3584;-93.9606;35.0000 
922.830;0.2637;0.9580;-0.0288;0.0000;0.0000;0.0000;94.3341;-17.3529;-93.9825;35.0000 
922.830;0.2637;0.9585;-0.0283;0.0000;0.0000;0.0000;94.3286;-17.3474;-94.0045;34.9700 
922.840;0.2637;0.9585;-0.0283;0.0000;0.0000;0.0000;94.3176;-17.3419;-94.0265;34.9700 
922.840;0.2637;0.9585;-0.0283;0.0000;0.0000;0.0000;94.3121;-17.3309;-94.0485;34.9700 
922.840;0.2637;0.9585;-0.0283;0.0000;0.0000;0.0000;94.3066;-17.3254;-94.0649;35.0500 
922.840;0.2637;0.9585;-0.0283;0.0000;0.0000;0.0000;94.2957;-17.3199;-94.0869;35.0500 
922.850;0.2637;0.9585;-0.0283;0.0000;0.0000;0.0000;94.2902;-17.3145;-94.1089;35.0500 
922.850;0.2637;0.9585;-0.0283;0.0000;0.0000;0.0000;94.2847;-17.3090;-94.1254;35.0500 
922.850;0.2642;0.9585;-0.0283;0.0000;0.0000;0.0000;94.2737;-17.3035;-94.1473;35.0200 
922.850;0.2642;0.9585;-0.0283;0.0000;0.0000;0.0000;94.2682;-17.2980;-94.1693;35.0200 
922.860;0.2642;0.9585;-0.0283;0.0000;0.0000;0.0000;94.2627;-17.2925;-94.1858;35.0300 
922.860;0.2642;0.9585;-0.0283;0.0000;0.0000;0.0000;94.2517;-17.2815;-94.2078;35.0300 
922.870;0.2642;0.9585;-0.0283;0.0000;0.0000;0.0000;94.2462;-17.2760;-94.2297;34.9400 
922.870;0.2642;0.9585;-0.0283;0.0000;0.0000;0.0000;94.2407;-17.2705;-94.2517;34.9400 
922.950;0.2642;0.9585;-0.0283;0.0000;0.0000;0.0000;94.2297;-17.2650;-94.2682;35.0500 
922.950;0.2642;0.9585;-0.0283;0.0000;0.0000;0.0000;94.2242;-17.2595;-94.2902;35.0500 
922.950;0.2637;0.9585;-0.0283;0.0000;0.0000;0.0000;94.2188;-17.2540;-94.3121;35.0000 
922.950;0.2637;0.9585;-0.0283;0.0000;0.0000;0.0000;94.2078;-17.2485;-94.3286;35.0000 
922.950;0.2637;0.9585;-0.0283;0.0000;0.0000;0.0000;94.2023;-17.2430;-94.3506;35.0000 
922.980;0.2637;0.9585;-0.0283;0.0000;0.0000;0.0000;94.1968;-17.2375;-94.3726;35.0100 
922.980;0.2637;0.9585;-0.0283;0.0000;0.0000;0.0000;94.1858;-17.2266;-94.3945;35.0100 
922.980;0.2637;0.9585;-0.0283;0.0000;0.0000;0.0000;94.1803;-17.2211;-94.4110;35.0800 
922.980;0.2637;0.9585;-0.0283;0.0000;0.0000;0.0000;94.1748;-17.2156;-94.4330;35.0800 
922.980;0.2637;0.9585;-0.0283;0.0000;0.0000;0.0000;94.1638;-17.2101;-94.4495;35.0300 
922.980;0.2637;0.9585;-0.0278;0.0000;0.0000;0.0000;94.1583;-17.2046;-94.4659;35.0300 
922.980;0.2637;0.9585;-0.0278;0.0000;0.0000;0.0000;94.1528;-17.1991;-94.4824;35.0100 
922.980;0.2637;0.9585;-0.0278;0.0000;0.0000;0.0000;94.1473;-17.1936;-94.4989;35.0100 
922.980;0.2637;0.9585;-0.0278;0.0000;0.0000;0.0000;94.1364;-17.1881;-94.5154;35.0700 
922.980;0.2637;0.9585;-0.0278;0.0000;0.0000;0.0000;94.1309;-17.1826;-94.5319;35.0700 
922.980;0.2637;0.9585;-0.0278;0.0000;0.0000;0.0000;94.1254;-17.1771;-94.5483;35.0500 
922.980;0.2637;0.9585;-0.0278;0.0000;0.0000;0.0000;94.1144;-17.1716;-94.5648;35.0500 
922.990;0.2637;0.9585;-0.0278;0.0000;0.0000;0.0000;94.1089;-17.1661;-94.5868;35.0200 
922.990;0.2632;0.9580;-0.0278;0.0000;0.0000;0.0000;94.1034;-17.1606;-94.6033;35.0200 
922.990;0.2632;0.9580;-0.0278;0.0000;0.0000;0.0000;94.0924;-17.1552;-94.6198;34.9900 
922.990;0.2632;0.9580;-0.0278;0.0000;0.0000;0.0000;94.0869;-17.1497;-94.6362;34.9900 
923.000;0.2632;0.9580;-0.0278;0.0000;0.0000;0.0000;94.0814;-17.1442;-94.6582;34.9900 
923.000;0.2632;0.9580;-0.0278;0.0000;0.0000;0.0000;94.0759;-17.1387;-94.6747;35.0400 
923.010;0.2632;0.9580;-0.0278;0.0000;0.0000;0.0000;94.0649;-17.1277;-94.6912;35.0400 
923.010;0.2632;0.9580;-0.0278;0.0000;0.0000;0.0000;94.0594;-17.1222;-94.7076;35.0600 
923.030;0.2632;0.9580;-0.0278;0.0000;0.0000;0.0000;94.0540;-17.1167;-94.7296;35.0600 
923.030;0.2632;0.9580;-0.0278;0.0000;0.0000;0.0000;94.0485;-17.1112;-94.7461;35.0200 
923.030;0.2632;0.9580;-0.0278;0.0000;0.0000;0.0000;94.0375;-17.1057;-94.7626;35.0200 
923.030;0.2632;0.9580;-0.0278;0.0000;0.0000;0.0000;94.0320;-17.1002;-94.7845;34.9600 
923.050;0.2632;0.9580;-0.0278;0.0000;0.0000;0.0000;94.0265;-17.0947;-94.8010;34.9600 
923.050;0.2632;0.9580;-0.0278;0.0000;0.0000;0.0000;94.0210;-17.0892;-94.8175;35.0200 
923.060;0.2632;0.9580;-0.0278;0.0000;0.0000;0.0000;94.0100;-17.0837;-94.8340;35.0200 
923.060;0.2632;0.9580;-0.0278;0.0000;0.0000;0.0000;94.0045;-17.0782;-94.8560;35.0400 
923.060;0.2632;0.9580;-0.0278;0.0000;0.0000;0.0000;93.9990;-17.0728;-94.8724;35.0400 
923.140;0.2632;0.9580;-0.0278;0.0000;0.0000;0.0000;93.9935;-17.0673;-94.8889;34.9900 
923.140;0.2632;0.9580;-0.0278;0.0000;0.0000;0.0000;93.9825;-17.0618;-94.9054;34.9900 
923.140;0.2632;0.9580;-0.0278;0.0000;0.0000;0.0000;93.9771;-17.0563;-94.9274;35.0500 
923.140;0.2632;0.9580;-0.0278;0.0000;0.0000;0.0000;93.9716;-17.0508;-94.9438;35.0500 
923.160;0.2632;0.9580;-0.0278;0.0000;0.0000;0.0000;93.9661;-17.0453;-94.9603;35.0500 
923.160;0.2632;0.9580;-0.0278;0.0000;0.0000;0.0000;93.9606;-17.0398;-94.9823;35.0800 
923.160;0.2632;0.9580;-0.0278;0.0000;0.0000;0.0000;93.9496;-17.0343;-94.9988;35.0800 
923.160;0.2632;0.9580;-0.0278;0.0000;0.0000;0.0000;93.9441;-17.0288;-95.0153;35.0000 
923.160;0.2632;0.9580;-0.0278;0.0000;0.0000;0.0000;93.9386;-17.0233;-95.0317;35.0000 
923.160;0.2632;0.9580;-0.0278;0.0000;0.0000;0.0000;93.9331;-17.0178;-95.0482;35.0200 
923.160;0.2632;0.9580;-0.0278;0.0000;0.0000;0.0000;93.9276;-17.0123;-95.0647;35.0200 
923.160;0.2632;0.9580;-0.0278;0.0000;0.0000;0.0000;93.9166;-17.0068;-95.0812;35.0600 
923.160;0.2632;0.9580;-0.0278;0.0000;0.0000;0.0000;93.9111;-17.0013;-95.0977;35.0600 
923.160;0.2632;0.9580;-0.0278;0.0000;0.0000;0.0000;93.9056;-16.9958;-95.1141;34.9700 
923.160;0.2632;0.9580;-0.0278;0.0000;0.0000;0.0000;93.9001;-16.9958;-95.1306;34.9700 
923.160;0.2632;0.9580;-0.0278;0.0000;0.0000;0.0000;93.8947;-16.9904;-95.1471;35.0200 
923.170;0.2632;0.9580;-0.0283;0.0000;0.0000;0.0000;93.8892;-16.9849;-95.1636;35.0200 
923.170;0.2632;0.9580;-0.0283;0.0000;0.0000;0.0000;93.8782;-16.9794;-95.1801;35.0700 
923.170;0.2632;0.9580;-0.0283;0.0000;0.0000;0.0000;93.8727;-16.9739;-95.1965;35.0700 
923.170;0.2632;0.9580;-0.0283;0.0000;0.0000;0.0000;93.8672;-16.9684;-95.2075;34.9900 
923.190;0.2632;0.9580;-0.0283;0.0000;0.0000;0.0000;93.8617;-16.9629;-95.2240;34.9900 
923.190;0.2632;0.9580;-0.0283;0.0000;0.0000;0.0000;93.8562;-16.9574;-95.2405;34.9900 
923.190;0.2632;0.9580;-0.0283;0.0000;0.0000;0.0000;93.8507;-16.9519;-95.2570;35.0100 
923.190;0.2632;0.9580;-0.0283;0.0000;0.0000;0.0000;93.8397;-16.9464;-95.2734;35.0100 
923.190;0.2637;0.9580;-0.0283;0.0000;0.0000;0.0000;93.8342;-16.9409;-95.2899;34.9800 
923.190;0.2637;0.9580;-0.0283;0.0000;0.0000;0.0000;93.8287;-16.9354;-95.3064;34.9800 
923.210;0.2637;0.9580;-0.0283;0.0000;0.0000;0.0000;93.8232;-16.9299;-95.3229;34.9900 
923.210;0.2637;0.9580;-0.0283;0.0000;0.0000;0.0000;93.8177;-16.9244;-95.3339;34.9900 
923.210;0.2637;0.9580;-0.0283;0.0000;0.0000;0.0000;93.8123;-16.9244;-95.3503;35.0500 
923.210;0.2637;0.9580;-0.0283;0.0000;0.0000;0.0000;93.8068;-16.9189;-95.3613;35.0500 
923.220;0.2637;0.9580;-0.0283;0.0000;0.0000;0.0000;93.8013;-16.9135;-95.3778;35.0300 
923.220;0.2637;0.9580;-0.0283;0.0000;0.0000;0.0000;93.7903;-16.9080;-95.3888;35.0300 
923.230;0.2637;0.9585;-0.0283;0.0000;0.0000;0.0000;93.7848;-16.9025;-95.3998;35.0400 
923.230;0.2637;0.9585;-0.0283;0.0000;0.0000;0.0000;93.7793;-16.8970;-95.4163;35.0400 
923.230;0.2637;0.9585;-0.0283;0.0000;0.0000;0.0000;93.7738;-16.8915;-95.4327;35.0100 
923.230;0.2637;0.9585;-0.0283;0.0000;0.0000;0.0000;93.7683;-16.8860;-95.4437;35.0100 
923.240;0.2637;0.9585;-0.0283;0.0000;0.0000;0.0000;93.7628;-16.8805;-95.4602;35.0200 
923.240;0.2637;0.9585;-0.0283;0.0000;0.0000;0.0000;93.7573;-16.8805;-95.4767;35.0200 
923.340;0.2637;0.9585;-0.0283;0.0000;0.0000;0.0000;93.7518;-16.8750;-95.4877;35.0200 
923.340;0.2637;0.9585;-0.0283;0.0000;0.0000;0.0000;93.7463;-16.8695;-95.5042;34.9900 
923.340;0.2637;0.9585;-0.0283;0.0000;0.0000;0.0000;93.7408;-16.8640;-95.5206;34.9900 
923.350;0.2637;0.9585;-0.0283;0.0000;0.0000;0.0000;93.7299;-16.8585;-95.5371;35.0600 
923.350;0.2637;0.9585;-0.0283;0.0000;0.0000;0.0000;93.7244;-16.8530;-95.5536;35.0600 
923.350;0.2637;0.9585;-0.0283;0.0000;0.0000;0.0000;93.7189;-16.8475;-95.5701;35.0200 
923.350;0.2637;0.9585;-0.0283;0.0000;0.0000;0.0000;93.7134;-16.8475;-95.5811;35.0200 
923.350;0.2637;0.9585;-0.0283;0.0000;0.0000;0.0000;93.7079;-16.8420;-95.5975;34.9700 
923.350;0.2637;0.9585;-0.0283;0.0000;0.0000;0.0000;93.7024;-16.8365;-95.6140;34.9700 
923.350;0.2637;0.9585;-0.0283;0.0000;0.0000;0.0000;93.6969;-16.8311;-95.6305;34.9800 
923.350;0.2637;0.9585;-0.0283;0.0000;0.0000;0.0000;93.6914;-16.8256;-95.6470;34.9800 
923.350;0.2637;0.9585;-0.0283;0.0000;0.0000;0.0000;93.6859;-16.8201;-95.6635;35.0000 
923.350;0.2637;0.9585;-0.0283;0.0000;0.0000;0.0000;93.6804;-16.8146;-95.6744;35.0000 
923.390;0.2637;0.9585;-0.0283;0.0000;0.0000;0.0000;93.6749;-16.8146;-95.6909;35.0700 
923.390;0.2637;0.9585;-0.0283;0.0000;0.0000;0.0000;93.6694;-16.8091;-95.7019;35.0700 
923.410;0.2637;0.9585;-0.0283;0.0000;0.0000;0.0000;93.6639;-16.8036;-95.7184;35.0700 
923.410;0.2637;0.9585;-0.0283;0.0000;0.0000;0.0000;93.6584;-16.7981;-95.7294;34.9600 
923.420;0.2637;0.9585;-0.0283;0.0000;0.0000;0.0000;93.6530;-16.7926;-95.7458;34.9600 
923.420;0.2637;0.9585;-0.0288;0.0000;0.0000;0.0000;93.6475;-16.7871;-95.7623;35.0000 
923.440;0.2637;0.9585;-0.0288;0.0000;0.0000;0.0000;93.6420;-16.7871;-95.7733;35.0000 
923.440;0.2637;0.9585;-0.0288;0.0000;0.0000;0.0000;93.6365;-16.7816;-95.7898;35.0700 
923.450;0.2637;0.9585;-0.0288;0.0000;0.0000;0.0000;93.6310;-16.7761;-95.8063;35.0700 
923.450;0.2637;0.9585;-0.0288;0.0000;0.0000;0.0000;93.6255;-16.7706;-95.8173;34.9900 
923.530;0.2637;0.9585;-0.0288;0.0000;0.0000;0.0000;93.6200;-16.7651;-95.8337;34.9900 
923.530