Time;ax;ay;az;wx;wy;wz;AngleX;AngleY;AngleZ;T 
293.979;0.0024;0.0044;0.9937;0.0000;0.0000;0.0000;0.2802;-0.1208;-56.0138;35.4700 
293.979;0.0024;0.0044;0.9937;0.0000;0.0000;0.0000;0.2802;-0.1208;-56.0138;35.4700 
293.979;0.0024;0.0044;0.9937;0.0000;0.0000;0.0000;0.2802;-0.1208;-56.0138;35.5200 
293.989;0.0024;0.0044;0.9937;0.0000;0.0000;0.0000;0.2802;-0.1208;-56.0138;35.5200 
293.989;0.0024;0.0044;0.9937;0.0000;0.0000;0.0000;0.2802;-0.1208;-56.0138;35.4500 
293.989;0.0024;0.0044;0.9937;0.0000;0.0000;0.0000;0.2802;-0.1208;-56.0138;35.4500 
293.989;0.0024;0.0044;0.9937;0.0000;0.0000;0.0000;0.2802;-0.1208;-56.0138;35.4000 
293.998;0.0024;0.0044;0.9937;0.0000;0.0000;0.0000;0.2802;-0.1208;-56.0138;35.4000 
293.998;0.0034;0.0063;0.9937;0.0000;0.0000;0.0000;0.2802;-0.1208;-56.0138;35.4500 
294.018;0.0034;0.0063;0.9937;0.0000;0.0000;0.0000;0.2802;-0.1208;-56.0138;35.4500 
294.028;0.0034;0.0063;0.9937;0.0000;0.0000;0.0000;0.2802;-0.1208;-56.0138;35.4500 
294.038;0.0034;0.0063;0.9937;0.0000;0.0000;0.0000;0.2802;-0.1208;-56.0138;35.4200 
294.038;0.0034;0.0063;0.9937;0.0000;0.0000;0.0000;0.2802;-0.1208;-56.0138;35.4200 
294.038;0.0034;0.0063;0.9937;0.0000;0.0000;0.0000;0.2802;-0.1208;-56.0138;35.4200 
294.038;0.0034;0.0063;0.9937;0.0000;0.0000;0.0000;0.2802;-0.1208;-56.0138;35.4200 
294.038;0.0034;0.0063;0.9937;0.0000;0.0000;0.0000;0.2802;-0.1208;-56.0193;35.4700 
294.038;0.0015;0.0049;0.9922;0.0000;0.0000;0.0000;0.2802;-0.1208;-56.0193;35.4700 
294.158;0.0015;0.0049;0.9922;0.0000;0.0000;0.0000;0.2802;-0.1208;-56.0193;35.4400 
294.158;0.0015;0.0049;0.9922;0.0000;0.0000;0.0000;0.2802;-0.1208;-56.0193;35.4400 
294.168;0.0015;0.0049;0.9922;0.0000;0.0000;0.0000;0.2802;-0.1208;-56.0193;35.4700 
294.168;0.0015;0.0049;0.9922;0.0000;0.0000;0.0000;0.2802;-0.1208;-56.0248;35.4700 
294.168;0.0015;0.0049;0.9922;0.0000;0.0000;0.0000;0.2802;-0.1208;-56.0248;35.4600 
294.168;0.0015;0.0049;0.9922;0.0000;0.0000;0.0000;0.2802;-0.1208;-56.0248;35.4600 
294.168;0.0015;0.0049;0.9922;0.0000;0.0000;0.0000;0.2802;-0.1208;-56.0248;35.4900 
294.168;0.0020;0.0063;0.9927;0.0000;0.1221;-0.1831;0.2802;-0.1208;-56.0303;35.4900 
294.168;0.0020;0.0063;0.9927;0.0000;0.1221;-0.1831;0.2802;-0.1208;-56.0303;35.4900 
294.168;0.0020;0.0063;0.9927;0.0000;0.1221;-0.1831;0.2856;-0.1208;-56.0303;35.4600 
294.168;0.0020;0.0063;0.9927;0.0000;0.1221;-0.1831;0.2856;-0.1208;-56.0358;35.4600 
294.168;0.0020;0.0063;0.9927;0.0000;0.1221;-0.1831;0.2856;-0.1208;-56.0358;35.4800 
294.168;0.0020;0.0063;0.9927;0.0000;0.1221;-0.1831;0.2856;-0.1208;-56.0358;35.4800 
294.168;0.0020;0.0063;0.9927;0.0000;0.1221;-0.1831;0.2856;-0.1154;-56.0358;35.4000 
294.168;0.0020;0.0063;0.9927;0.0000;0.1221;-0.1831;0.2856;-0.1154;-56.0358;35.4000 
294.168;0.0005;0.0044;0.9917;0.0610;0.0610;-0.2441;0.2856;-0.1154;-56.0358;35.4000 
294.168;0.0005;0.0044;0.9917;0.0610;0.0610;-0.2441;0.2856;-0.1154;-56.0358;35.4000 
294.168;0.0005;0.0044;0.9917;0.0610;0.0610;-0.2441;0.2856;-0.1154;-56.0358;35.4300 
294.168;0.0005;0.0044;0.9917;0.0610;0.0610;-0.2441;0.2856;-0.1154;-56.0358;35.4300 
294.168;0.0005;0.0044;0.9917;0.0610;0.0610;-0.2441;0.2856;-0.1154;-56.0358;35.4300 
294.168;0.0005;0.0044;0.9917;0.0610;0.0610;-0.2441;0.2856;-0.1154;-56.0413;35.4300 
294.168;0.0005;0.0044;0.9917;0.0610;0.0610;-0.2441;0.2856;-0.1154;-56.0413;35.4300 
294.168;0.0005;0.0044;0.9917;0.0610;0.0610;-0.2441;0.2856;-0.1099;-56.0413;35.4300 
294.168;0.0005;0.0039;0.9922;0.0610;0.0610;-0.3052;0.2856;-0.1099;-56.0468;35.4800 
294.168;0.0005;0.0039;0.9922;0.0610;0.0610;-0.3052;0.2856;-0.1099;-56.0468;35.4800 
294.178;0.0005;0.0039;0.9922;0.0610;0.0610;-0.3052;0.2856;-0.1099;-56.0468;35.4800 
294.178;0.0005;0.0039;0.9922;0.0610;0.0610;-0.3052;0.2856;-0.1099;-56.0468;35.4500 
294.188;0.0005;0.0039;0.9922;0.0610;0.0610;-0.3052;0.2856;-0.1099;-56.0522;35.4500 
294.188;0.0005;0.0039;0.9922;0.0610;0.0610;-0.3052;0.2856;-0.1099;-56.0522;35.4600 
294.208;0.0005;0.0039;0.9922;0.0610;0.0610;-0.3052;0.2856;-0.1099;-56.0522;35.4600 
294.208;0.0005;0.0039;0.9922;0.0610;0.0610;-0.3052;0.2856;-0.1099;-56.0522;35.5200 
294.208;0.0005;0.0020;0.9927;0.0610;0.0000;-0.2441;0.2856;-0.1099;-56.0522;35.5200 
294.208;0.0005;0.0020;0.9927;0.0610;0.0000;-0.2441;0.2856;-0.1099;-56.0522;35.4400 
294.298;0.0005;0.0020;0.9927;0.0610;0.0000;-0.2441;0.2856;-0.1044;-56.0522;35.4400 
294.298;0.0005;0.0020;0.9927;0.0610;0.0000;-0.2441;0.2856;-0.1044;-56.0522;35.4700 
294.318;0.0005;0.0020;0.9927;0.0610;0.0000;-0.2441;0.2856;-0.1044;-56.0522;35.4700 
294.318;0.0005;0.0020;0.9927;0.0610;0.0000;-0.2441;0.2856;-0.1044;-56.0522;35.4400 
294.318;0.0005;0.0020;0.9927;0.0610;0.0000;-0.2441;0.2856;-0.1044;-56.0522;35.4400 
294.318;0.0005;0.0020;0.9927;0.0610;0.0000;-0.2441;0.2856;-0.1044;-56.0577;35.4000 
294.318;0.0010;0.0010;0.9937;0.0000;0.0000;-0.1221;0.2856;-0.1044;-56.0577;35.4000 
294.318;0.0010;0.0010;0.9937;0.0000;0.0000;-0.1221;0.2856;-0.1044;-56.0522;35.5300 
294.318;0.0010;0.0010;0.9937;0.0000;0.0000;-0.1221;0.2856;-0.1044;-56.0522;35.5300 
294.318;0.0010;0.0010;0.9937;0.0000;0.0000;-0.1221;0.2802;-0.1044;-56.0522;35.5300 
294.318;0.0010;0.0010;0.9937;0.0000;0.0000;-0.1221;0.2802;-0.1044;-56.0522;35.3400 
294.318;0.0010;0.0010;0.9937;0.0000;0.0000;-0.1221;0.2802;-0.1044;-56.0522;35.3400 
294.318;0.0010;0.0010;0.9937;0.0000;0.0000;-0.1221;0.2802;-0.1044;-56.0522;35.4800 
294.318;0.0010;0.0010;0.9937;0.0000;0.0000;-0.1221;0.2802;-0.1044;-56.0522;35.4800 
294.318;0.0010;0.0000;0.9932;0.0000;-0.0610;0.0000;0.2802;-0.1044;-56.0577;35.4500 
294.318;0.0010;0.0000;0.9932;0.0000;-0.0610;0.0000;0.2802;-0.1044;-56.0577;35.4500 
294.318;0.0010;0.0000;0.9932;0.0000;-0.0610;0.0000;0.2802;-0.1044;-56.0577;35.4200 
294.318;0.0010;0.0000;0.9932;0.0000;-0.0610;0.0000;0.2747;-0.1044;-56.0577;35.4200 
294.318;0.0010;0.0000;0.9932;0.0000;-0.0610;0.0000;0.2747;-0.1044;-56.0577;35.5000 
294.318;0.0010;0.0000;0.9932;0.0000;-0.0610;0.0000;0.2747;-0.1044;-56.0632;35.5000 
294.318;0.0010;0.0000;0.9932;0.0000;-0.0610;0.0000;0.2747;-0.1044;-56.0632;35.4000 
294.318;0.0010;0.0000;0.9932;0.0000;-0.0610;0.0000;0.2747;-0.1044;-56.0632;35.4000 
294.318;0.0024;0.0015;0.9941;0.0000;-0.0610;0.0000;0.2747;-0.1044;-56.0632;35.4600 
294.338;0.0024;0.0015;0.9941;0.0000;-0.0610;0.0000;0.2747;-0.1044;-56.0687;35.4600 
294.338;0.0024;0.0015;0.9941;0.0000;-0.0610;0.0000;0.2747;-0.1044;-56.0687;35.4500 
294.338;0.0024;0.0015;0.9941;0.0000;-0.0610;0.0000;0.2692;-0.1044;-56.0687;35.4500 
294.338;0.0024;0.0015;0.9941;0.0000;-0.0610;0.0000;0.2692;-0.1099;-56.0687;35.4500 
294.348;0.0024;0.0015;0.9941;0.0000;-0.0610;0.0000;0.2692;-0.1099;-56.0687;35.4500 
294.348;0.0024;0.0015;0.9941;0.0000;-0.0610;0.0000;0.2692;-0.1099;-56.0687;35.4500 
294.358;0.0024;0.0015;0.9941;0.0000;-0.0610;0.0000;0.2692;-0.1099;-56.0687;35.4500 
294.358;0.0015;0.0010;0.9941;0.0000;-0.0610;0.0610;0.2692;-0.1099;-56.0742;35.4500 
294.378;0.0015;0.0010;0.9941;0.0000;-0.0610;0.0610;0.2692;-0.1099;-56.0742;35.4500 
294.378;0.0015;0.0010;0.9941;0.0000;-0.0610;0.0610;0.2692;-0.1099;-56.0742;35.4500 
294.398;0.0015;0.0010;0.9941;0.0000;-0.0610;0.0610;0.2692;-0.1099;-56.0742;35.4100 
294.398;0.0015;0.0010;0.9941;0.0000;-0.0610;0.0610;0.2637;-0.1099;-56.0742;35.4100 
294.398;0.0015;0.0010;0.9941;0.0000;-0.0610;0.0610;0.2637;-0.1099;-56.0742;35.4800 
294.398;0.0015;0.0010;0.9941;0.0000;-0.0610;0.0610;0.2637;-0.1099;-56.0742;35.4800 
294.398;0.0015;0.0010;0.9941;0.0000;-0.0610;0.0610;0.2637;-0.1099;-56.0742;35.4400 
294.398;0.0024;0.0024;0.9941;0.0000;-0.0610;0.0610;0.2637;-0.1099;-56.0742;35.4400 
294.408;0.0024;0.0024;0.9941;0.0000;-0.0610;0.0610;0.2637;-0.1099;-56.0687;35.4600 
294.408;0.0024;0.0024;0.9941;0.0000;-0.0610;0.0610;0.2637;-0.1099;-56.0687;35.4600 
294.498;0.0024;0.0024;0.9941;0.0000;-0.0610;0.0610;0.2637;-0.1099;-56.0687;35.4500 
294.498;0.0024;0.0024;0.9941;0.0000;-0.0610;0.0610;0.2637;-0.1099;-56.0687;35.4500 
294.498;0.0024;0.0024;0.9941;0.0000;-0.0610;0.0610;0.2637;-0.1154;-56.0687;35.4500 
294.498;0.0024;0.0024;0.9941;0.0000;-0.0610;0.0610;0.2637;-0.1154;-56.0632;35.5100 
294.508;0.0024;0.0024;0.9941;0.0000;-0.0610;0.0610;0.2637;-0.1154;-56.0632;35.5100 
294.508;0.0020;0.0034;0.9937;0.0000;-0.0610;0.0000;0.2637;-0.1154;-56.0632;35.4400 
294.508;0.0020;0.0034;0.9937;0.0000;-0.0610;0.0000;0.2637;-0.1154;-56.0632;35.4400 
294.508;0.0020;0.0034;0.9937;0.0000;-0.0610;0.0000;0.2637;-0.1154;-56.0632;35.4500 
294.508;0.0020;0.0034;0.9937;0.0000;-0.0610;0.0000;0.2582;-0.1154;-56.0632;35.4500 
294.508;0.0020;0.0034;0.9937;0.0000;-0.0610;0.0000;0.2582;-0.1154;-56.0577;35.4100 
294.508;0.0020;0.0034;0.9937;0.0000;-0.0610;0.0000;0.2582;-0.1154;-56.0577;35.4100 
294.508;0.0020;0.0034;0.9937;0.0000;-0.0610;0.0000;0.2582;-0.1154;-56.0577;35.4800 
294.508;0.0020;0.0034;0.9937;0.0000;-0.0610;0.0000;0.2582;-0.1154;-56.0577;35.4800 
294.508;0.0024;0.0039;0.9937;0.0000;-0.0610;0.0000;0.2582;-0.1154;-56.0577;35.4800 
294.508;0.0024;0.0039;0.9937;0.0000;-0.0610;0.0000;0.2582;-0.1154;-56.0577;35.4800 
294.508;0.0024;0.0039;0.9937;0.0000;-0.0610;0.0000;0.2582;-0.1154;-56.0577;35.4200 
294.508;0.0024;0.0039;0.9937;0.0000;-0.0610;0.0000;0.2582;-0.1154;-56.0577;35.4200 
294.508;0.0024;0.0039;0.9937;0.0000;-0.0610;0.0000;0.2582;-0.1154;-56.0577;35.4200 
294.508;0.0024;0.0039;0.9937;0.0000;-0.0610;0.0000;0.2582;-0.1154;-56.0577;35.4700 
294.518;0.0024;0.0039;0.9937;0.0000;-0.0610;0.0000;0.2582;-0.1208;-56.0577;35.4700 
294.518;0.0024;0.0039;0.9937;0.0000;-0.0610;0.0000;0.2582;-0.1208;-56.0577;35.4300 
294.528;0.0024;0.0039;0.9932;0.0610;-0.0610;0.0000;0.2582;-0.1208;-56.0577;35.4300 
294.528;0.0024;0.0039;0.9932;0.0610;-0.0610;0.0000;0.2582;-0.1208;-56.0577;35.4800 
294.538;0.0024;0.0039;0.9932;0.0610;-0.0610;0.0000;0.2582;-0.1208;-56.0577;35.4800 
294.538;0.0024;0.0039;0.9932;0.0610;-0.0610;0.0000;0.2582;-0.1208;-56.0577;35.4000 
294.548;0.0024;0.0039;0.9932;0.0610;-0.0610;0.0000;0.2582;-0.1208;-56.0577;35.4000 
294.548;0.0024;0.0039;0.9932;0.0610;-0.0610;0.0000;0.2582;-0.1208;-56.0577;35.4300 
294.568;0.0024;0.0039;0.9932;0.0610;-0.0610;0.0000;0.2637;-0.1208;-56.0577;35.4300 
294.568;0.0024;0.0039;0.9932;0.0610;-0.0610;0.0000;0.2637;-0.1208;-56.0522;35.4200 
294.568;0.0029;0.0039;0.9932;0.0610;0.0000;0.0000;0.2637;-0.1208;-56.0522;35.4200 
294.568;0.0029;0.0039;0.9932;0.0610;0.0000;0.0000;0.2637;-0.1208;-56.0522;35.4700 
294.588;0.0029;0.0039;0.9932;0.0610;0.0000;0.0000;0.2637;-0.1208;-56.0522;35.4700 
294.588;0.0029;0.0039;0.9932;0.0610;0.0000;0.0000;0.2637;-0.1208;-56.0522;35.4800 
294.588;0.0029;0.0039;0.9932;0.0610;0.0000;0.0000;0.2637;-0.1208;-56.0522;35.4800 
294.598;0.0029;0.0039;0.9932;0.0610;0.0000;0.0000;0.2637;-0.1208;-56.0468;35.4800 
294.598;0.0029;0.0039;0.9932;0.0610;0.0000;0.0000;0.2637;-0.1208;-56.0468;35.4500 
294.618;0.0029;0.0039;0.9932;0.0610;0.0000;0.0000;0.2637;-0.1208;-56.0468;35.4500 
294.618;0.0029;0.0034;0.9927;0.0610;0.0000;0.0000;0.2637;-0.1208;-56.0468;35.4500 
294.628;0.0029;0.0034;0.9927;0.0610;0.0000;0.0000;0.2637;-0.1208;-56.0468;35.4500 
294.628;0.0029;0.0034;0.9927;0.0610;0.0000;0.0000;0.2637;-0.1208;-56.0413;35.3900 
294.628;0.0029;0.0034;0.9927;0.0610;0.0000;0.0000;0.2637;-0.1208;-56.0413;35.3900 
294.628;0.0029;0.0034;0.9927;0.0610;0.0000;0.0000;0.2637;-0.1208;-56.0413;35.4300 
294.628;0.0029;0.0034;0.9927;0.0610;0.0000;0.0000;0.2637;-0.1208;-56.0413;35.4300 
294.628;0.0029;0.0034;0.9927;0.0610;0.0000;0.0000;0.2637;-0.1208;-56.0413;35.4600 
294.648;0.0029;0.0034;0.9927;0.0610;0.0000;0.0000;0.2637;-0.1208;-56.0413;35.4600 
294.648;0.0029;0.0039;0.9932;0.0610;0.0000;0.0000;0.2637;-0.1208;-56.0413;35.4400 
294.658;0.0029;0.0039;0.9932;0.0610;0.0000;0.0000;0.2637;-0.1263;-56.0413;35.4400 
294.658;0.0029;0.0039;0.9932;0.0610;0.0000;0.0000;0.2637;-0.1263;-56.0413;35.4600 
294.758;0.0029;0.0039;0.9932;0.0610;0.0000;0.0000;0.2637;-0.1263;-56.0413;35.4600 
294.758;0.0029;0.0039;0.9932;0.0610;0.0000;0.0000;0.2637;-0.1263;-56.0413;35.4000 
294.758;0.0029;0.0039;0.9932;0.0610;0.0000;0.0000;0.2637;-0.1263;-56.0413;35.4000 
294.758;0.0029;0.0039;0.9932;0.0610;0.0000;0.0000;0.2637;-0.1263;-56.0413;35.4000 
294.768;0.0029;0.0039;0.9932;0.0610;0.0000;0.0000;0.2637;-0.1263;-56.0413;35.4300 
294.768;0.0029;0.0039;0.9932;0.0610;0.0000;0.0000;0.2637;-0.1263;-56.0413;35.4300 
294.768;0.0029;0.0039;0.9932;0.0610;0.0000;0.0000;0.2637;-0.1263;-56.0413;35.4600 
294.768;0.0029;0.0039;0.9932;0.0610;0.0000;0.0000;0.2637;-0.1263;-56.0413;35.4600 
294.768;0.0029;0.0039;0.9932;0.0610;0.0000;0.0000;0.2637;-0.1263;-56.0413;35.4400 
294.768;0.0029;0.0039;0.9932;0.0610;0.0000;0.0000;0.2637;-0.1263;-56.0413;35.4400 
294.768;0.0029;0.0039;0.9932;0.0610;0.0000;0.0000;0.2692;-0.1263;-56.0413;35.4400 
294.768;0.0029;0.0039;0.9932;0.0610;0.0000;0.0000;0.2692;-0.1263;-56.0358;35.4400 
294.768;0.0029;0.0039;0.9932;0.0610;0.0000;0.0000;0.2692;-0.1263;-56.0358;35.4400 
294.768;0.0020;0.0039;0.9937;0.0610;0.0000;0.0000;0.2692;-0.1263;-56.0358;35.4400 
294.768;0.0020;0.0039;0.9937;0.0610;0.0000;0.0000;0.2692;-0.1263;-56.0358;35.4400 
294.768;0.0020;0.0039;0.9937;0.0610;0.0000;0.0000;0.2692;-0.1263;-56.0358;35.4400 
294.768;0.0020;0.0039;0.9937;0.0610;0.0000;0.0000;0.2692;-0.1263;-56.0358;35.5100 
294.768;0.0020;0.0039;0.9937;0.0610;0.0000;0.0000;0.2692;-0.1263;-56.0303;35.5100 
294.768;0.0020;0.0039;0.9937;0.0610;0.0000;0.0000;0.2692;-0.1263;-56.0303;35.4700 
294.768;0.0020;0.0039;0.9937;0.0610;0.0000;0.0000;0.2692;-0.1263;-56.0303;35.4700 
294.768;0.0020;0.0039;0.9937;0.0610;0.0000;0.0000;0.2692;-0.1263;-56.0303;35.4700 
294.768;0.0020;0.0044;0.9937;0.0610;0.0610;0.0000;0.2692;-0.1263;-56.0303;35.3900 
294.768;0.0020;0.0044;0.9937;0.0610;0.0610;0.0000;0.2692;-0.1263;-56.0303;35.3900 
294.778;0.0020;0.0044;0.9937;0.0610;0.0610;0.0000;0.2692;-0.1263;-56.0303;35.4300 
294.778;0.0020;0.0044;0.9937;0.0610;0.0610;0.0000;0.2692;-0.1263;-56.0303;35.4300 
294.788;0.0020;0.0044;0.9937;0.0610;0.0610;0.0000;0.2692;-0.1208;-56.0303;35.4600 
294.788;0.0020;0.0044;0.9937;0.0610;0.0610;0.0000;0.2692;-0.1208;-56.0303;35.4600 
294.798;0.0020;0.0044;0.9937;0.0610;0.0610;0.0000;0.2692;-0.1208;-56.0303;35.3900 
294.798;0.0020;0.0044;0.9937;0.0610;0.0610;0.0000;0.2692;-0.1208;-56.0303;35.3900 
294.808;0.0020;0.0044;0.9937;0.0610;0.0610;0.0000;0.2692;-0.1208;-56.0303;35.5000 
294.808;0.0020;0.0044;0.9937;0.0610;0.0610;0.0000;0.2692;-0.1208;-56.0303;35.5000 
294.828;0.0020;0.0044;0.9937;0.0610;0.0610;0.0000;0.2692;-0.1208;-56.0303;35.4400 
294.828;0.0020;0.0044;0.9937;0.0610;0.0610;0.0000;0.2692;-0.1208;-56.0303;35.4400 
294.848;0.0020;0.0044;0.9937;0.0610;0.0610;0.0000;0.2747;-0.1208;-56.0248;35.4300 
294.848;0.0020;0.0044;0.9937;0.0610;0.0610;0.0000;0.2747;-0.1208;-56.0248;35.4300 
294.958;0.0020;0.0044;0.9937;0.0610;0.0610;0.0000;0.2747;-0.1208;-56.0248;35.4500 
294.958;0.0020;0.0044;0.9937;0.0610;0.0610;0.0000;0.2747;-0.1208;-56.0248;35.4500 
294.978;0.0020;0.0049;0.9941;0.0610;0.0610;0.0000;0.2747;-0.1208;-56.0248;35.4500 
294.978;0.0020;0.0049;0.9941;0.0610;0.0610;0.0000;0.2747;-0.1208;-56.0248;35.4600 
294.978;0.0020;0.0049;0.9941;0.0610;0.0610;0.0000;0.2747;-0.1208;-56.0248;35.4600 
294.978;0.0020;0.0049;0.9941;0.0610;0.0610;0.0000;0.2747;-0.1208;-56.0248;35.4400 
294.978;0.0020;0.0049;0.9941;0.0610;0.0610;0.0000;0.2747;-0.1154;-56.0248;35.4400 
294.978;0.0020;0.0049;0.9941;0.0610;0.0610;0.0000;0.2747;-0.1154;-56.0248;35.4100 
294.978;0.0020;0.0049;0.9941;0.0610;0.0610;0.0000;0.2747;-0.1154;-56.0193;35.4100 
294.978;0.0020;0.0049;0.9941;0.0610;0.0610;0.0000;0.2747;-0.1154;-56.0193;35.4200 
294.978;0.0015;0.0063;0.9932;0.0610;0.0610;0.0000;0.2747;-0.1154;-56.0193;35.4200 
294.978;0.0015;0.0063;0.9932;0.0610;0.0610;0.0000;0.2747;-0.1154;-56.0138;35.4000 
294.978;0.0015;0.0063;0.9932;0.0610;0.0610;0.0000;0.2747;-0.1154;-56.0138;35.4000 
294.978;0.0015;0.0063;0.9932;0.0610;0.0610;0.0000;0.2802;-0.1154;-56.0138;35.4100 
294.978;0.0015;0.0063;0.9932;0.0610;0.0610;0.0000;0.2802;-0.1154;-56.0138;35.4100 
294.978;0.0015;0.0063;0.9932;0.0610;0.0610;0.0000;0.2802;-0.1154;-56.0083;35.5000 
294.978;0.0015;0.0063;0.9932;0.0610;0.0610;0.0000;0.2802;-0.1154;-56.0083;35.5000 
294.978;0.0015;0.0063;0.9932;0.0610;0.0610;0.0000;0.2802;-0.1154;-56.0083;35.4500 
294.978;0.0020;0.0059;0.9937;0.0610;0.0610;-0.0610;0.2802;-0.1154;-56.0083;35.4500 
294.978;0.0020;0.0059;0.9937;0.0610;0.0610;-0.0610;0.2802;-0.1154;-56.0083;35.4500 
294.978;0.0020;0.0059;0.9937;0.0610;0.0610;-0.0610;0.2802;-0.1099;-56.0028;35.4000 
294.978;0.0020;0.0059;0.9937;0.0610;0.0610;-0.0610;0.2802;-0.1099;-56.0028;35.4000 
294.978;0.0020;0.0059;0.9937;0.0610;0.0610;-0.0610;0.2802;-0.1099;-56.0028;35.4400 
294.978;0.0020;0.0059;0.9937;0.0610;0.0610;-0.0610;0.2856;-0.1099;-56.0028;35.4400 
294.978;0.0020;0.0059;0.9937;0.0610;0.0610;-0.0610;0.2856;-0.1099;-56.0028;35.4800 
294.978;0.0020;0.0059;0.9937;0.0610;0.0610;-0.0610;0.2856;-0.1099;-55.9973;35.4800 
294.978;0.0005;0.0049;0.9932;0.0610;0.0610;-0.0610;0.2856;-0.1099;-55.9973;35.4100 
294.978;0.0005;0.0049;0.9932;0.0610;0.0610;-0.0610;0.2856;-0.1099;-55.9973;35.4100 
294.978;0.0005;0.0049;0.9932;0.0610;0.0610;-0.0610;0.2856;-0.1099;-55.9973;35.4500 
294.978;0.0005;0.0049;0.9932;0.0610;0.0610;-0.0610;0.2856;-0.1099;-55.9973;35.4500 
294.978;0.0005;0.0049;0.9932;0.0610;0.0610;-0.0610;0.2856;-0.1099;-55.9973;35.5000 
294.988;0.0005;0.0049;0.9932;0.0610;0.0610;-0.0610;0.2856;-0.1099;-56.0028;35.5000 
294.988;0.0005;0.0049;0.9932;0.0610;0.0610;-0.0610;0.2856;-0.1044;-56.0028;35.4500 
294.998;0.0005;0.0049;0.9932;0.0610;0.0610;-0.0610;0.2856;-0.1044;-56.0028;35.4500 
294.998;0.0015;0.0068;0.9937;0.0610;0.0610;-0.0610;0.2856;-0.1044;-56.0028;35.4500 
295.008;0.0015;0.0068;0.9937;0.0610;0.0610;-0.0610;0.2856;-0.1044;-56.0028;35.4100 
295.008;0.0015;0.0068;0.9937;0.0610;0.0610;-0.0610;0.2911;-0.1044;-56.0028;35.4100 
295.018;0.0015;0.0068;0.9937;0.0610;0.0610;-0.0610;0.2911;-0.1044;-56.0083;35.4100 
295.018;0.0015;0.0068;0.9937;0.0610;0.0610;-0.0610;0.2911;-0.1044;-56.0083;35.4100 
295.028;0.0015;0.0068;0.9937;0.0610;0.0610;-0.0610;0.2911;-0.1044;-56.0083;35.4200 
295.028;0.0015;0.0068;0.9937;0.0610;0.0610;-0.0610;0.2911;-0.1044;-56.0083;35.4200 
295.038;0.0015;0.0068;0.9937;0.0610;0.0610;-0.0610;0.2911;-0.1044;-56.0083;35.3300 
295.038;0.0005;0.0059;0.9927;0.1221;0.0000;-0.0610;0.2911;-0.1044;-56.0083;35.3300 
295.058;0.0005;0.0059;0.9927;0.1221;0.0000;-0.0610;0.2911;-0.1044;-56.0083;35.4500 
295.058;0.0005;0.0059;0.9927;0.1221;0.0000;-0.0610;0.2966;-0.1044;-56.0083;35.4500 
295.058;0.0005;0.0059;0.9927;0.1221;0.0000;-0.0610;0.2966;-0.1044;-56.0083;35.4500 
295.058;0.0005;0.0059;0.9927;0.1221;0.0000;-0.0610;0.2966;-0.1044;-56.0028;35.4500 
295.068;0.0005;0.0059;0.9927;0.1221;0.0000;-0.0610;0.2966;-0.1044;-56.0028;35.3800 
295.068;0.0005;0.0059;0.9927;0.1221;0.0000;-0.0610;0.2966;-0.1044;-56.0028;35.3800 
295.158;0.0005;0.0059;0.9927;0.1221;0.0000;-0.0610;0.2966;-0.0989;-56.0028;35.4100 
295.158;0.0010;0.0088;0.9927;0.1221;0.0000;-0.0610;0.2966;-0.0989;-56.0028;35.4100 
295.178;0.0010;0.0088;0.9927;0.1221;0.0000;-0.0610;0.3021;-0.0989;-56.0083;35.4100 
295.178;0.0010;0.0088;0.9927;0.1221;0.0000;-0.0610;0.3021;-0.0989;-56.0083;35.4000 
295.178;0.0010;0.0088;0.9927;0.1221;0.0000;-0.0610;0.3021;-0.0989;-56.0083;35.4000 
295.178;0.0010;0.0088;0.9927;0.1221;0.0000;-0.0610;0.3021;-0.0989;-56.0083;35.4100 
295.178;0.0010;0.0088;0.9927;0.1221;0.0000;-0.0610;0.3076;-0.0989;-56.0138;35.4100 
295.178;0.0010;0.0088;0.9927;0.1221;0.0000;-0.0610;0.3076;-0.0989;-56.0138;35.5000 
295.178;-0.0029;0.0103;0.9961;0.1221;0.0000;-0.1221;0.3076;-0.0989;-56.0138;35.5000 
295.178;-0.0029;0.0103;0.9961;0.1221;0.0000;-0.1221;0.3076;-0.0989;-56.0138;35.4500 
295.178;-0.0029;0.0103;0.9961;0.1221;0.0000;-0.1221;0.3131;-0.0989;-56.0193;35.4500 
295.178;-0.0029;0.0103;0.9961;0.1221;0.0000;-0.1221;0.3131;-0.0989;-56.0193;35.4300 
295.178;-0.0029;0.0103;0.9961;0.1221;0.0000;-0.1221;0.3131;-0.0989;-56.0193;35.4300 
295.178;-0.0029;0.0103;0.9961;0.1221;0.0000;-0.1221;0.3131;-0.0934;-56.0193;35.4000 
295.178;-0.0029;0.0103;0.9961;0.1221;0.0000;-0.1221;0.3186;-0.0934;-56.0193;35.4000 
295.178;-0.0029;0.0103;0.9961;0.1221;0.0000;-0.1221;0.3186;-0.0934;-56.0193;35.4200 
295.178;-0.2183;-0.0049;1.0122;0.0000;0.0000;-0.2441;0.3186;-0.0549;-56.0193;35.4200 
295.178;-0.2183;-0.0049;1.0122;0.0000;0.0000;-0.2441;0.3131;-0.0220;-56.0193;35.4000 
295.178;-0.2183;-0.0049;1.0122;0.0000;0.0000;-0.2441;0.3131;0.0110;-56.0193;35.4000 
295.178;-0.2183;-0.0049;1.0122;0.0000;0.0000;-0.2441;0.3076;0.0494;-56.0138;35.4000 
295.178;-0.2183;-0.0049;1.0122;0.0000;0.0000;-0.2441;0.3076;0.0824;-56.0138;35.5500 
295.198;-0.2183;-0.0049;1.0122;0.0000;0.0000;-0.2441;0.3076;0.1208;-56.0138;35.5500 
295.198;-0.2183;-0.0049;1.0122;0.0000;0.0000;-0.2441;0.3021;0.1538;-56.0138;35.3900 
295.208;-0.2183;-0.0049;1.0122;0.0000;0.0000;-0.2441;0.3021;0.1923;-56.0138;35.3900 
295.208;-0.4834;0.0103;0.9790;-0.1221;0.3052;-0.1831;0.3021;0.2692;-56.0083;35.4500 
295.228;-0.4834;0.0103;0.9790;-0.1221;0.3052;-0.1831;0.3021;0.3516;-55.9973;35.4500 
295.228;-0.4834;0.0103;0.9790;-0.1221;0.3052;-0.1831;0.2966;0.4285;-55.9918;35.3800 
295.228;-0.4834;0.0103;0.9790;-0.1221;0.3052;-0.1831;0.2966;0.5054;-55.9863;35.3800 
295.228;-0.4834;0.0103;0.9790;-0.1221;0.3052;-0.1831;0.2966;0.5823;-55.9808;35.4100 
295.228;-0.4834;0.0103;0.9790;-0.1221;0.3052;-0.1831;0.2911;0.6647;-55.9753;35.4100 
295.228;-0.4834;0.0103;0.9790;-0.1221;0.3052;-0.1831;0.2911;0.7416;-55.9644;35.4400 
295.238;-0.4834;0.0103;0.9790;-0.1221;0.3052;-0.1831;0.2911;0.8185;-55.9589;35.4400 
295.238;-0.8774;0.0361;1.0024;-0.2441;0.6104;0.3662;0.2856;0.9393;-55.9424;35.4600 
295.248;-0.8774;0.0361;1.0024;-0.2441;0.6104;0.3662;0.2856;1.0602;-55.9204;35.4600 
295.248;-0.8774;0.0361;1.0024;-0.2441;0.6104;0.3662;0.2802;1.1810;-55.9039;35.4300 
295.258;-0.8774;0.0361;1.0024;-0.2441;0.6104;0.3662;0.2802;1.3019;-55.8875;35.4300 
295.268;-0.8774;0.0361;1.0024;-0.2441;0.6104;0.3662;0.2747;1.4227;-55.8655;35.4300 
295.268;-0.8774;0.0361;1.0024;-0.2441;0.6104;0.3662;0.2747;1.5436;-55.8490;35.3900 
295.378;-0.8774;0.0361;1.0024;-0.2441;0.6104;0.3662;0.2692;1.6644;-55.8270;35.3900 
295.378;-0.8774;0.0361;1.0024;-0.2441;0.6104;0.3662;0.2637;1.7798;-55.8105;35.4300 
295.388;-1.2915;0.0781;0.9917;-0.4272;0.7324;1.3428;0.2582;1.9336;-55.7721;35.4300 
295.388;-1.2915;0.0781;0.9917;-0.4272;0.7324;1.3428;0.2527;2.0819;-55.7391;35.4100 
295.388;-1.2915;0.0781;0.9917;-0.4272;0.7324;1.3428;0.2472;2.2357;-55.7007;35.4100 
295.388;-1.2915;0.0781;0.9917;-0.4272;0.7324;1.3428;0.2362;2.3840;-55.6677;35.4300 
295.388;-1.2915;0.0781;0.9917;-0.4272;0.7324;1.3428;0.2307;2.5323;-55.6293;35.4300 
295.388;-1.2915;0.0781;0.9917;-0.4272;0.7324;1.3428;0.2252;2.6807;-55.5963;35.4300 
295.388;-1.2915;0.0781;0.9917;-0.4272;0.7324;1.3428;0.2142;2.8290;-55.5579;35.4300 
295.388;-1.2915;0.0781;0.9917;-0.4272;0.7324;1.3428;0.2087;2.9773;-55.5194;35.4100 
295.388;-1.6128;0.0972;0.9819;-0.7935;1.0376;1.5259;0.1923;3.1421;-55.4755;35.4100 
295.388;-1.6128;0.0972;0.9819;-0.7935;1.0376;1.5259;0.1813;3.3069;-55.4260;35.4500 
295.388;-1.6128;0.0972;0.9819;-0.7935;1.0376;1.5259;0.1648;3.4717;-55.3821;35.4500 
295.388;-1.6128;0.0972;0.9819;-0.7935;1.0376;1.5259;0.1483;3.6365;-55.3326;35.4300 
295.388;-1.6128;0.0972;0.9819;-0.7935;1.0376;1.5259;0.1373;3.8013;-55.2887;35.4300 
295.388;-1.6128;0.0972;0.9819;-0.7935;1.0376;1.5259;0.1208;3.9661;-55.2393;35.4300 
295.388;-1.6128;0.0972;0.9819;-0.7935;1.0376;1.5259;0.1099;4.1254;-55.1953;35.5200 
295.388;-1.6128;0.0972;0.9819;-0.7935;1.0376;1.5259;0.0934;4.2902;-55.1514;35.5200 
295.388;-1.8618;0.1118;0.9746;-1.2207;1.4648;0.0000;0.0714;4.4604;-55.1074;35.4500 
295.388;-1.8618;0.1118;0.9746;-1.2207;1.4648;0.0000;0.0549;4.6362;-55.0635;35.4500 
295.388;-1.8618;0.1118;0.9746;-1.2207;1.4648;0.0000;0.0330;4.8065;-55.0140;35.4700 
295.388;-1.8618;0.1118;0.9746;-1.2207;1.4648;0.0000;0.0110;4.9823;-54.9701;35.4700 
295.388;-1.8618;0.1118;0.9746;-1.2207;1.4648;0.0000;-0.0055;5.1526;-54.9261;35.4600 
295.388;-1.8618;0.1118;0.9746;-1.2207;1.4648;0.0000;-0.0220;5.3229;-54.8822;35.4600 
295.388;-1.8618;0.1118;0.9746;-1.2207;1.4648;0.0000;-0.0439;5.4932;-54.8438;35.5000 
295.388;-1.8618;0.1118;0.9746;-1.2207;1.4648;0.0000;-0.0659;5.6689;-54.7998;35.5000 
295.398;-1.8501;0.0479;0.8594;-1.5869;1.4038;-3.0518;-0.0989;5.8392;-54.7614;35.4200 
295.398;-1.8501;0.0479;0.8594;-1.5869;1.4038;-3.0518;-0.1373;6.0150;-54.7284;35.4200 
295.408;-1.8501;0.0479;0.8594;-1.5869;1.4038;-3.0518;-0.1703;6.1908;-54.6899;35.4300 
295.418;-1.8501;0.0479;0.8594;-1.5869;1.4038;-3.0518;-0.2032;6.3666;-54.6570;35.4300 
295.418;-1.8501;0.0479;0.8594;-1.5869;1.4038;-3.0518;-0.2362;6.5424;-54.6240;35.4300 
295.418;-1.8501;0.0479;0.8594;-1.5869;1.4038;-3.0518;-0.2747;6.7126;-54.5911;35.4700 
295.518;-1.8501;0.0479;0.8594;-1.5869;1.4038;-3.0518;-0.3076;6.8884;-54.5526;35.4700 
295.538;-1.8501;0.0479;0.8594;-1.5869;1.4038;-3.0518;-0.3406;7.0587;-54.5197;35.4000 
295.538;-1.6201;0.0112;0.6904;-1.7090;-0.4883;-6.7139;-0.3845;7.2235;-54.4977;35.4000 
295.538;-1.6201;0.0112;0.6904;-1.7090;-0.4883;-6.7139;-0.4340;7.3883;-54.4757;35.4500 
295.538;-1.6201;0.0112;0.6904;-1.7090;-0.4883;-6.7139;-0.4779;7.5531;-54.4537;35.4500 
295.538;-1.6201;0.0112;0.6904;-1.7090;-0.4883;-6.7139;-0.5273;7.7179;-54.4318;35.4200 
295.538;-1.6201;0.0112;0.6904;-1.7090;-0.4883;-6.7139;-0.5713;7.8827;-54.4098;35.4200 
295.538;-1.6201;0.0112;0.6904;-1.7090;-0.4883;-6.7139;-0.6152;8.0475;-54.3823;35.4400 
295.538;-1.6201;0.0112;0.6904;-1.7090;-0.4883;-6.7139;-0.6647;8.2068;-54.3604;35.4400 
295.538;-1.6201;0.0112;0.6904;-1.7090;-0.4883;-6.7139;-0.7086;8.3716;-54.3384;35.4500 
295.538;-1.1309;-0.0400;0.4722;-0.7935;-5.7373;-9.3384;-0.7635;8.5034;-54.3219;35.4500 
295.538;-1.1309;-0.0400;0.4722;-0.7935;-5.7373;-9.3384;-0.8185;8.6407;-54.3054;35.4000 
295.538;-1.1309;-0.0400;0.4722;-0.7935;-5.7373;-9.3384;-0.8734;8.7726;-54.2944;35.4000 
295.538;-1.1309;-0.0400;0.4722;-0.7935;-5.7373;-9.3384;-0.9338;8.9044;-54.2780;35.4800 
295.538;-1.1309;-0.0400;0.4722;-0.7935;-5.7373;-9.3384;-0.9888;9.0363;-54.2615;35.4800 
295.538;-1.1309;-0.0400;0.4722;-0.7935;-5.7373;-9.3384;-1.0437;9.1736;-54.2450;35.4800 
295.538;-1.1309;-0.0400;0.4722;-0.7935;-5.7373;-9.3384;-1.0986;9.3054;-54.2285;35.4100 
295.538;-1.1309;-0.0400;0.4722;-0.7935;-5.7373;-9.3384;-1.1536;9.4318;-54.2120;35.4100 
295.538;-0.5488;-0.0625;0.2568;0.9766;-14.0991;-10.2539;-1.2140;9.5142;-54.2010;35.4500 
295.538;-0.5488;-0.0625;0.2568;0.9766;-14.0991;-10.2539;-1.2689;9.5966;-54.1956;35.4500 
295.538;-0.5488;-0.0625;0.2568;0.9766;-14.0991;-10.2539;-1.3239;9.6735;-54.1901;35.4500 
295.538;-0.5488;-0.0625;0.2568;0.9766;-14.0991;-10.2539;-1.3788;9.7559;-54.1846;35.4500 
295.538;-0.5488;-0.0625;0.2568;0.9766;-14.0991;-10.2539;-1.4337;9.8328;-54.1736;35.4200 
295.568;-0.5488;-0.0625;0.2568;0.9766;-14.0991;-10.2539;-1.4941;9.9097;-54.1681;35.4200 
295.578;-0.5488;-0.0625;0.2568;0.9766;-14.0991;-10.2539;-1.5491;9.9921;-54.1626;35.4200 
295.578;-0.5488;-0.0625;0.2568;0.9766;-14.0991;-10.2539;-1.6040;10.0690;-54.1571;35.4200 
295.578;-0.0615;-0.0645;0.1011;3.4180;-23.7427;-9.7656;-1.6809;10.0031;-54.2010;35.4100 
295.578;-0.0615;-0.0645;0.1011;3.4180;-23.7427;-9.7656;-1.7578;9.9371;-54.2450;35.4100 
295.578;-0.0615;-0.0645;0.1011;3.4180;-23.7427;-9.7656;-1.8347;9.8657;-54.2889;35.4300 
295.578;-0.0615;-0.0645;0.1011;3.4180;-23.7427;-9.7656;-1.9116;9.7998;-54.3329;35.4300 
295.588;-0.0615;-0.0645;0.1011;3.4180;-23.7427;-9.7656;-1.9885;9.7339;-54.3768;35.4400 
295.588;-0.0615;-0.0645;0.1011;3.4180;-23.7427;-9.7656;-2.0654;9.6680;-54.4208;35.4400 
295.598;-0.0615;-0.0645;0.1011;3.4180;-23.7427;-9.7656;-2.1368;9.6021;-54.4647;35.4400 
295.598;-0.0615;-0.0645;0.1011;3.4180;-23.7427;-9.7656;-2.2137;9.5361;-54.5087;35.3800 
295.608;0.2559;-0.0562;0.0195;6.1035;-31.7993;-8.7891;-2.2028;9.1241;-54.5087;35.3800 
295.608;0.2559;-0.0562;0.0195;6.1035;-31.7993;-8.7891;-2.1863;8.7122;-54.5087;35.3800 
295.618;0.2559;-0.0562;0.0195;6.1035;-31.7993;-8.7891;-2.1698;8.3002;-54.5087;35.3800 
295.618;0.2559;-0.0562;0.0195;6.1035;-31.7993;-8.7891;-2.1588;7.8882;-54.5087;35.4200 
295.628;0.2559;-0.0562;0.0195;6.1035;-31.7993;-8.7891;-2.1478;7.4817;-54.5087;35.4200 
295.628;0.2559;-0.0562;0.0195;6.1035;-31.7993;-8.7891;-2.1368;7.0697;-54.5142;35.4500 
295.718;0.2559;-0.0562;0.0195;6.1035;-31.7993;-8.7891;-2.1313;6.6632;-54.5251;35.4500 
295.718;0.2559;-0.0562;0.0195;6.1035;-31.7993;-8.7891;-2.1204;6.2567;-54.5306;35.4300 
295.728;0.4082;-0.0439;0.0049;8.1787;-36.3159;-7.8735;-2.0325;5.8282;-54.4867;35.4300 
295.728;0.4082;-0.0439;0.0049;8.1787;-36.3159;-7.8735;-1.9391;5.3943;-54.4373;35.4500 
295.728;0.4082;-0.0439;0.0049;8.1787;-36.3159;-7.8735;-1.8457;4.9658;-54.3933;35.4500 
295.728;0.4082;-0.0439;0.0049;8.1787;-36.3159;-7.8735;-1.7578;4.5374;-54.3494;35.4900 
295.728;0.4082;-0.0439;0.0049;8.1787;-36.3159;-7.8735;-1.6699;4.1089;-54.3109;35.4900 
295.728;0.4082;-0.0439;0.0049;8.1787;-36.3159;-7.8735;-1.5820;3.6804;-54.2670;35.3900 
295.728;0.4082;-0.0439;0.0049;8.1787;-36.3159;-7.8735;-1.4941;3.2574;-54.2285;35.3900 
295.728;0.4082;-0.0439;0.0049;8.1787;-36.3159;-7.8735;-1.4117;2.8290;-54.1956;35.3900 
295.728;0.2466;0.0986;0.1680;9.2163;-37.4756;-7.2021;-1.2964;2.4829;-54.2175;35.5400 
295.728;0.2466;0.0986;0.1680;9.2163;-37.4756;-7.2021;-1.1865;2.1313;-54.2450;35.5400 
295.728;0.2466;0.0986;0.1680;9.2163;-37.4756;-7.2021;-1.0767;1.7853;-54.2725;35.3700 
295.728;0.2466;0.0986;0.1680;9.2163;-37.4756;-7.2021;-0.9668;1.4392;-54.2999;35.3700 
295.728;0.2466;0.0986;0.1680;9.2163;-37.4756;-7.2021;-0.8569;1.0931;-54.3329;35.4400 
295.728;0.2466;0.0986;0.1680;9.2163;-37.4756;-7.2021;-0.7471;0.7526;-54.3658;35.4400 
295.728;0.2466;0.0986;0.1680;9.2163;-37.4756;-7.2021;-0.6427;0.4065;-54.3988;35.4500 
295.728;0.2466;0.0986;0.1680;9.2163;-37.4756;-7.2021;-0.5328;0.0659;-54.4318;35.4500 
295.728;0.4717;0.1230;0.5327;7.0190;-42.1753;-5.9204;-0.4724;-0.2637;-54.4757;35.4300 
295.748;0.4717;0.1230;0.5327;7.0190;-42.1753;-5.9204;-0.4065;-0.5933;-54.5251;35.4300 
295.748;0.4717;0.1230;0.5327;7.0190;-42.1753;-5.9204;-0.3461;-0.9283;-54.5691;35.4100 
295.758;0.4717;0.1230;0.5327;7.0190;-42.1753;-5.9204;-0.2856;-1.2579;-54.6130;35.4100 
295.758;0.4717;0.1230;0.5327;7.0190;-42.1753;-5.9204;-0.2252;-1.5875;-54.6570;35.3800 
295.768;0.4717;0.1230;0.5327;7.0190;-42.1753;-5.9204;-0.1648;-1.9116;-54.7064;35.3800 
295.768;0.4717;0.1230;0.5327;7.0190;-42.1753;-5.9204;-0.0989;-2.2412;-54.7559;35.4900 
295.768;0.4717;0.1230;0.5327;7.0190;-42.1753;-5.9204;-0.0385;-2.5653;-54.7998;35.4900 
295.768;0.3179;0.2285;0.7441;-0.5493;-52.1240;-4.3945;0.0000;-2.8894;-54.8547;35.4900 
295.768;0.3179;0.2285;0.7441;-0.5493;-52.1240;-4.3945;0.0385;-3.2135;-54.9042;35.4400 
295.768;0.3179;0.2285;0.7441;-0.5493;-52.1240;-4.3945;0.0769;-3.5321;-54.9591;35.4400 
295.788;0.3179;0.2285;0.7441;-0.5493;-52.1240;-4.3945;0.1208;-3.8507;-55.0085;35.4700 
295.788;0.3179;0.2285;0.7441;-0.5493;-52.1240;-4.3945;0.1648;-4.1748;-55.0635;35.4700 
295.798;0.3179;0.2285;0.7441;-0.5493;-52.1240;-4.3945;0.2032;-4.4934;-55.1184;35.4300 
295.798;0.3179;0.2285;0.7441;-0.5493;-52.1240;-4.3945;0.2472;-4.8065;-55.1678;35.4300 
295.808;0.3179;0.2285;0.7441;-0.5493;-52.1240;-4.3945;0.2911;-5.1251;-55.2228;35.4500 
295.808;0.5137;0.2007;0.9707;-13.1836;-60.0586;-4.1504;0.2527;-5.4932;-55.2722;35.4500 
295.808;0.5137;0.2007;0.9707;-13.1836;-60.0586;-4.1504;0.2142;-5.8612;-55.3217;35.4300 
295.808;0.5137;0.2007;0.9707;-13.1836;-60.0586;-4.1504;0.1758;-6.2292;-55.3711;35.4300 
295.818;0.5137;0.2007;0.9707;-13.1836;-60.0586;-4.1504;0.1428;-6.5918;-55.4205;35.3500 
295.818;0.5137;0.2007;0.9707;-13.1836;-60.0586;-4.1504;0.1044;-6.9543;-55.4700;35.3500 
295.917;0.5137;0.2007;0.9707;-13.1836;-60.0586;-4.1504;0.0659;-7.3169;-55.5194;35.5100 
295.917;0.5137;0.2007;0.9707;-13.1836;-60.0586;-4.1504;0.0330;-7.6794;-55.5688;35.5100 
295.917;0.5137;0.2007;0.9707;-13.1836;-60.0586;-4.1504;0.0000;-8.0420;-55.6183;35.5100 
295.917;0.5093;0.1265;0.8467;-29.1138;-62.5000;-5.7983;-0.1208;-8.4210;-55.6732;35.5000 
295.927;0.5093;0.1265;0.8467;-29.1138;-62.5000;-5.7983;-0.2417;-8.8055;-55.7227;35.5000 
295.927;0.5093;0.1265;0.8467;-29.1138;-62.5000;-5.7983;-0.3680;-9.1846;-55.7776;35.4600 
295.927;0.5093;0.1265;0.8467;-29.1138;-62.5000;-5.7983;-0.4889;-9.5581;-55.8270;35.4600 
295.927;0.5093;0.1265;0.8467;-29.1138;-62.5000;-5.7983;-0.6097;-9.9371;-55.8820;35.4500 
295.927;0.5093;0.1265;0.8467;-29.1138;-62.5000;-5.7983;-0.7306;-10.3162;-55.9314;35.4500 
295.927;0.5093;0.1265;0.8467;-29.1138;-62.5000;-5.7983;-0.8459;-10.6897;-55.9808;35.4700 
295.927;0.5093;0.1265;0.8467;-29.1138;-62.5000;-5.7983;-0.9668;-11.0632;-56.0303;35.4700 
295.927;0.4028;0.0474;0.5742;-44.2505;-53.2227;-10.0098;-1.1700;-11.3983;-56.0962;35.4000 
295.927;0.4028;0.0474;0.5742;-44.2505;-53.2227;-10.0098;-1.3678;-11.7389;-56.1676;35.4000 
295.948;0.4028;0.0474;0.5742;-44.2505;-53.2227;-10.0098;-1.5710;-12.0740;-56.2335;35.4400 
295.948;0.4028;0.0474;0.5742;-44.2505;-53.2227;-10.0098;-1.7688;-12.4091;-56.2939;35.4400 
295.967;0.4028;0.0474;0.5742;-44.2505;-53.2227;-10.0098;-1.9666;-12.7441;-56.3599;35.4300 
295.967;0.4028;0.0474;0.5742;-44.2505;-53.2227;-10.0098;-2.1643;-13.0792;-56.4203;35.4300 
295.967;0.4028;0.0474;0.5742;-44.2505;-53.2227;-10.0098;-2.3621;-13.4143;-56.4862;35.4200 
295.967;0.4028;0.0474;0.5742;-44.2505;-53.2227;-10.0098;-2.5598;-13.7439;-56.5466;35.4200 
295.987;0.2705;-0.0146;0.2959;-54.8096;-33.2031;-15.8691;-2.8180;-14.0021;-56.6345;35.4200 
295.987;0.2705;-0.0146;0.2959;-54.8096;-33.2031;-15.8691;-3.0817;-14.2548;-56.7169;35.4500 
295.987;0.2705;-0.0146;0.2959;-54.8096;-33.2031;-15.8691;-3.3398;-14.5074;-56.8048;35.4500 
295.987;0.2705;-0.0146;0.2959;-54.8096;-33.2031;-15.8691;-3.5980;-14.7601;-56.8927;35.4400 
295.987;0.2705;-0.0146;0.2959;-54.8096;-33.2031;-15.8691;-3.8507;-15.0128;-56.9751;35.4400 
295.987;0.2705;-0.0146;0.2959;-54.8096;-33.2031;-15.8691;-4.1089;-15.2655;-57.0575;35.4300 
295.997;0.2705;-0.0146;0.2959;-54.8096;-33.2031;-15.8691;-4.3671;-15.5182;-57.1399;35.4300 
295.997;0.2705;-0.0146;0.2959;-54.8096;-33.2031;-15.8691;-4.6198;-15.7654;-57.2223;35.4500 
295.997;0.1592;-0.0537;0.0854;-60.0586;-12.6343;-20.9961;-4.9438;-15.9631;-57.3267;35.4500 
295.997;0.1592;-0.0537;0.0854;-60.0586;-12.6343;-20.9961;-5.2734;-16.1609;-57.4365;35.4400 
296.007;0.1592;-0.0537;0.0854;-60.0586;-12.6343;-20.9961;-5.5975;-16.3586;-57.5409;35.4400 
296.007;0.1592;-0.0537;0.0854;-60.0586;-12.6343;-20.9961;-5.9216;-16.5564;-57.6398;35.4300 
296.017;0.1592;-0.0537;0.0854;-60.0586;-12.6343;-20.9961;-6.2457;-16.7487;-57.7441;35.4300 
296.017;0.1592;-0.0537;0.0854;-60.0586;-12.6343;-20.9961;-6.5643;-16.9464;-57.8430;35.4600 
296.027;0.1592;-0.0537;0.0854;-60.0586;-12.6343;-20.9961;-6.8884;-17.1442;-57.9474;35.4600 
296.027;0.1592;-0.0537;0.0854;-60.0586;-12.6343;-20.9961;-7.2070;-17.3419;-58.0463;35.4100 
296.047;0.0889;-0.0723;-0.0322;-60.9741;2.8076;-24.2920;-7.7069;-17.4188;-58.2275;35.4100 
296.047;0.0889;-0.0723;-0.0322;-60.9741;2.8076;-24.2920;-8.2123;-17.5012;-58.4143;35.4100 
296.047;0.0889;-0.0723;-0.0322;-60.9741;2.8076;-24.2920;-8.7122;-17.5836;-58.6011;35.4800 
296.047;0.0889;-0.0723;-0.0322;-60.9741;2.8076;-24.2920;-9.2065;-17.6715;-58.7823;35.4800 
296.057;0.0889;-0.0723;-0.0322;-60.9741;2.8076;-24.2920;-9.7064;-17.7594;-58.9636;35.4300 
296.057;0.0889;-0.0723;-0.0322;-60.9741;2.8076;-24.2920;-10.2063;-17.8418;-59.1504;35.4300 
296.077;0.0889;-0.0723;-0.0322;-60.9741;2.8076;-24.2920;-10.7007;-17.9297;-59.3317;35.4300 
296.077;0.0889;-0.0723;-0.0322;-60.9741;2.8076;-24.2920;-11.1951;-18.0176;-59.5129;35.4300 
296.077;0.4526;-0.3037;0.2656;-57.3730;14.3433;-25.9399;-11.5192;-18.0725;-59.6558;35.4500 
296.077;0.4526;-0.3037;0.2656;-57.3730;14.3433;-25.9399;-11.8488;-18.1219;-59.8041;35.4500 
296.077;0.4526;-0.3037;0.2656;-57.3730;14.3433;-25.9399;-12.1729;-18.1714;-59.9469;35.4700 
296.087;0.4526;-0.3037;0.2656;-57.3730;14.3433;-25.9399;-12.4969;-18.2263;-60.0952;35.4700 
296.087;0.4526;-0.3037;0.2656;-57.3730;14.3433;-25.9399;-12.8210;-18.2813;-60.2380;35.4400 
296.177;0.4526;-0.3037;0.2656;-57.3730;14.3433;-25.9399;-13.1396;-18.3307;-60.3864;35.4400 
296.177;0.4526;-0.3037;0.2656;-57.3730;14.3433;-25.9399;-13.4637;-18.3856;-60.5292;35.3900 
296.197;0.4526;-0.3037;0.2656;-57.3730;14.3433;-25.9399;-13.7823;-18.4406;-60.6775;35.3900 
296.197;0.5518;-0.3638;0.3506;-46.3867;29.4189;-26.9165;-14.0350;-18.4186;-60.8478;35.4500 
296.197;0.5518;-0.3638;0.3506;-46.3867;29.4189;-26.9165;-14.2877;-18.4021;-61.0236;35.4500 
296.197;0.5518;-0.3638;0.3506;-46.3867;29.4189;-26.9165;-14.5349;-18.3801;-61.1938;35.4500 
296.277;0.5518;-0.3638;0.3506;-46.3867;29.4189;-26.9165;-14.7876;-18.3636;-61.3696;35.4600 
296.277;0.5518;-0.3638;0.3506;-46.3867;29.4189;-26.9165;-15.0348;-18.3472;-61.5454;35.4600 
296.287;0.5518;-0.3638;0.3506;-46.3867;29.4189;-26.9165;-15.2875;-18.3307;-61.7212;35.4300 
296.287;0.5518;-0.3638;0.3506;-46.3867;29.4189;-26.9165;-15.5347;-18.3142;-61.9025;35.4300 
296.287;0.5518;-0.3638;0.3506;-46.3867;29.4189;-26.9165;-15.7819;-18.2977;-62.0782;35.3400 
296.287;0.6826;-0.7163;0.8101;-25.2686;53.8940;-28.7476;-15.9137;-18.1219;-62.3035;35.3400 
296.387;0.6826;-0.7163;0.8101;-25.2686;53.8940;-28.7476;-16.0400;-17.9462;-62.5287;35.4200 
296.387;0.6826;-0.7163;0.8101;-25.2686;53.8940;-28.7476;-16.1719;-17.7704;-62.7539;35.4200 
296.387;0.6826;-0.7163;0.8101;-25.2686;53.8940;-28.7476;-16.2982;-17.5946;-62.9846;35.4400 
296.387;0.6826;-0.7163;0.8101;-25.2686;53.8940;-28.7476;-16.4301;-17.4188;-63.2153;35.4400 
296.427;0.6826;-0.7163;0.8101;-25.2686;53.8940;-28.7476;-16.5564;-17.2485;-63.4515;35.3900 
296.427;0.6826;-0.7163;0.8101;-25.2686;53.8940;-28.7476;-16.6882;-17.0728;-63.6877;35.3900 
296.427;0.6826;-0.7163;0.8101;-25.2686;53.8940;-28.7476;-16.8201;-16.9025;-63.9240;35.5000 
296.427;0.6880;-0.3804;1.1611;9.2773;79.3457;-33.9966;-16.6937;-16.6113;-64.2261;35.5000 
296.427;0.6880;-0.3804;1.1611;9.2773;79.3457;-33.9966;-16.5729;-16.3147;-64.5282;35.3900 
296.427;0.6880;-0.3804;1.1611;9.2773;79.3457;-33.9966;-16.4575;-16.0236;-64.8303;35.3900 
296.427;0.6880;-0.3804;1.1611;9.2773;79.3457;-33.9966;-16.3367;-15.7324;-65.1379;35.3900 
296.427;0.6880;-0.3804;1.1611;9.2773;79.3457;-33.9966;-16.2213;-15.4413;-65.4401;35.4100 
296.427;0.6880;-0.3804;1.1611;9.2773;79.3457;-33.9966;-16.1115;-15.1501;-65.7422;35.4100 
296.427;0.6880;-0.3804;1.1611;9.2773;79.3457;-33.9966;-15.9961;-14.8590;-66.0388;35.4300 
296.427;0.6880;-0.3804;1.1611;9.2773;79.3457;-33.9966;-15.8917;-14.5679;-66.3409;35.4300 
296.427;0.3418;-0.2773;1.2139;50.3540;90.0879;-44.2505;-15.5457;-14.1998;-66.7090;35.4100 
296.427;0.3418;-0.2773;1.2139;50.3540;90.0879;-44.2505;-15.2051;-13.8263;-67.0770;35.4100 
296.427;0.3418;-0.2773;1.2139;50.3540;90.0879;-44.2505;-14.8645;-13.4583;-67.4341;35.4300 
296.427;0.3418;-0.2773;1.2139;50.3540;90.0879;-44.2505;-14.5294;-13.0847;-67.7966;35.4300 
296.427;0.3418;-0.2773;1.2139;50.3540;90.0879;-44.2505;-14.1998;-12.7112;-68.1537;35.4500 
296.427;0.3418;-0.2773;1.2139;50.3540;90.0879;-44.2505;-13.8757;-12.3376;-68.5052;35.4500 
296.447;0.3418;-0.2773;1.2139;50.3540;90.0879;-44.2505;-13.5516;-11.9586;-68.8513;35.4000 
296.447;0.3418;-0.2773;1.2139;50.3540;90.0879;-44.2505;-13.2330;-11.5851;-69.2029;35.4000 
296.447;0.2627;0.1816;1.3135;78.6743;76.1719;-58.4106;-12.7057;-11.2830;-69.6094;35.4200 
296.447;0.2627;0.1816;1.3135;78.6743;76.1719;-58.4106;-12.1783;-10.9808;-70.0159;35.4200 
296.447;0.2627;0.1816;1.3135;78.6743;76.1719;-58.4106;-11.6565;-10.6787;-70.4169;35.4200 
296.447;0.2627;0.1816;1.3135;78.6743;76.1719;-58.4106;-11.1401;-10.3711;-70.8179;35.4400 
296.447;0.2627;0.1816;1.3135;78.6743;76.1719;-58.4106;-10.6293;-10.0580;-71.2134;35.4400 
296.447;0.2627;0.1816;1.3135;78.6743;76.1719;-58.4106;-10.1184;-9.7449;-71.6034;35.4000 
296.467;0.2627;0.1816;1.3135;78.6743;76.1719;-58.4106;-9.6130;-9.4318;-71.9934;35.4000 
296.467;0.2627;0.1816;1.3135;78.6743;76.1719;-58.4106;-9.1132;-9.1132;-72.3779;35.3500 
296.467;0.2773;0.3652;1.1074;82.7637;38.8184;-74.5239;-8.5583;-9.0033;-72.8119;35.3500 
296.467;0.2773;0.3652;1.1074;82.7637;38.8184;-74.5239;-8.0090;-8.8824;-73.2404;35.3800 
296.597;0.2773;0.3652;1.1074;82.7637;38.8184;-74.5239;-7.4597;-8.7616;-73.6688;35.3800 
296.597;0.2773;0.3652;1.1074;82.7637;38.8184;-74.5239;-6.9104;-8.6353;-74.0973;35.4600 
296.637;0.2773;0.3652;1.1074;82.7637;38.8184;-74.5239;-6.3666;-8.5089;-74.5258;35.4600 
296.637;0.2773;0.3652;1.1074;82.7637;38.8184;-74.5239;-5.8228;-8.3771;-74.9487;35.4200 
296.737;0.2773;0.3652;1.1074;82.7637;38.8184;-74.5239;-5.2844;-8.2397;-75.3717;35.4200 
296.737;0.2773;0.3652;1.1074;82.7637;38.8184;-74.5239;-4.7516;-8.1024;-75.7892;35.4300 
296.757;0.4180;0.2944;0.8564;58.9600;-2.5635;-89.1724;-4.3286;-8.2068;-76.2616;35.4300 
296.757;0.4180;0.2944;0.8564;58.9600;-2.5635;-89.1724;-3.9056;-8.3057;-76.7285;35.4300 
296.817;0.4180;0.2944;0.8564;58.9600;-2.5635;-89.1724;-3.4882;-8.3990;-77.1954;35.4300 
296.817;0.4180;0.2944;0.8564;58.9600;-2.5635;-89.1724;-3.0652;-8.4924;-77.6624;35.4300 
296.867;0.4180;0.2944;0.8564;58.9600;-2.5635;-89.1724;-2.6477;-8.5803;-78.1293;35.4000 
296.867;0.4180;0.2944;0.8564;58.9600;-2.5635;-89.1724;-2.2302;-8.6627;-78.5962;35.4000 
296.877;0.4180;0.2944;0.8564;58.9600;-2.5635;-89.1724;-1.8073;-8.7451;-79.0631;35.3800 
296.877;0.4180;0.2944;0.8564;58.9600;-2.5635;-89.1724;-1.3898;-8.8220;-79.5300;35.3800 
296.904;0.4766;-0.0127;0.7026;18.1885;-25.0244;-99.9146;-1.2250;-9.0308;-80.0464;35.4000 
296.904;0.4766;-0.0127;0.7026;18.1885;-25.0244;-99.9146;-1.0602;-9.2450;-80.5682;35.4000 
296.981;0.4766;-0.0127;0.7026;18.1885;-25.0244;-99.9146;-0.8899;-9.4482;-81.0846;35.4400 
297.001;0.4766;-0.0127;0.7026;18.1885;-25.0244;-99.9146;-0.7196;-9.6570;-81.6064;35.4400 
297.001;0.4766;-0.0127;0.7026;18.1885;-25.0244;-99.9146;-0.5493;-9.8602;-82.1283;35.4500 
297.021;0.4766;-0.0127;0.7026;18.1885;-25.0244;-99.9146;-0.3735;-10.0580;-82.6501;35.4500 
297.021;0.4766;-0.0127;0.7026;18.1885;-25.0244;-99.9146;-0.1978;-10.2557;-83.1720;35.5000 
297.031;0.4766;-0.0127;0.7026;18.1885;-25.0244;-99.9146;-0.0275;-10.4535;-83.6938;35.5000 
297.031;0.4419;-0.0117;0.7637;-13.7939;-22.8271;-106.1401;0.0000;-10.6238;-84.2542;35.4100 
297.061;0.4419;-0.0117;0.7637;-13.7939;-22.8271;-106.1401;0.0165;-10.7996;-84.8090;35.4100 
297.061;0.4419;-0.0117;0.7637;-13.7939;-22.8271;-106.1401;0.0439;-10.9698;-85.3693;35.4900 
297.191;0.4419;-0.0117;0.7637;-13.7939;-22.8271;-106.1401;0.0769;-11.1401;-85.9241;35.4900 
297.191;0.4419;-0.0117;0.7637;-13.7939;-22.8271;-106.1401;0.1044;-11.3104;-86.4844;35.4900 
297.191;0.4419;-0.0117;0.7637;-13.7939;-22.8271;-106.1401;0.1373;-11.4752;-87.0392;35.4600 
297.191;0.4419;-0.0117;0.7637;-13.7939;-22.8271;-106.1401;0.1703;-11.6455;-87.5995;35.4600 
297.221;0.4419;-0.0117;0.7637;-13.7939;-22.8271;-106.1401;0.2087;-11.8103;-88.1543;35.3700 
297.221;0.3047;-0.1855;0.7446;-23.8037;-5.4932;-106.8726;0.1593;-11.8652;-88.7091;35.3700 
297.261;0.3047;-0.1855;0.7446;-23.8037;-5.4932;-106.8726;0.1099;-11.9202;-89.2639;35.4600 
297.261;0.3047;-0.1855;0.7446;-23.8037;-5.4932;-106.8726;0.0604;-11.9751;-89.8187;35.4600 
297.261;0.3047;-0.1855;0.7446;-23.8037;-5.4932;-106.8726;0.0165;-12.0300;-90.3735;35.4600 
297.261;0.3047;-0.1855;0.7446;-23.8037;-5.4932;-106.8726;-0.0275;-12.0850;-90.9229;35.4600 
297.291;0.3047;-0.1855;0.7446;-23.8037;-5.4932;-106.8726;-0.0714;-12.1399;-91.4722;35.4200 
297.291;0.3047;-0.1855;0.7446;-23.8037;-5.4932;-106.8726;-0.1154;-12.1948;-92.0215;35.4200 
297.391;0.3047;-0.1855;0.7446;-23.8037;-5.4932;-106.8726;-0.1593;-12.2552;-92.5708;35.4400 
297.391;0.0864;-0.0342;0.9604;-16.7236;13.6719;-101.2573;-0.1373;-12.1674;-93.0927;35.4400 
297.391;0.0864;-0.0342;0.9604;-16.7236;13.6719;-101.2573;-0.1208;-12.0795;-93.6090;35.4100 
297.391;0.0864;-0.0342;0.9604;-16.7236;13.6719;-101.2573;-0.0989;-11.9916;-94.1254;35.4100 
297.411;0.0864;-0.0342;0.9604;-16.7236;13.6719;-101.2573;-0.0824;-11.9037;-94.6417;35.4500 
297.411;0.0864;-0.0342;0.9604;-16.7236;13.6719;-101.2573;-0.0659;-11.8158;-95.1581;35.4500 
297.411;0.0864;-0.0342;0.9604;-16.7236;13.6719;-101.2573;-0.0494;-11.7279;-95.6689;35.4500 
297.471;0.0864;-0.0342;0.9604;-16.7236;13.6719;-101.2573;-0.0330;-11.6400;-96.1798;35.4000 
297.471;0.0864;-0.0342;0.9604;-16.7236;13.6719;-101.2573;-0.0220;-11.5521;-96.6907;35.4000 
297.471;-0.0181;0.1411;0.9707;-1.7090;24.5972;-89.5996;0.0824;-11.3928;-97.1521;35.4500 
297.471;-0.0181;0.1411;0.9707;-1.7090;24.5972;-89.5996;0.1868;-11.2280;-97.6025;35.4500 
297.501;-0.0181;0.1411;0.9707;-1.7090;24.5972;-89.5996;0.2911;-11.0687;-98.0585;35.4200 
297.501;-0.0181;0.1411;0.9707;-1.7090;24.5972;-89.5996;0.3900;-10.9039;-98.5089;35.4200 
297.501;-0.0181;0.1411;0.9707;-1.7090;24.5972;-89.5996;0.4889;-10.7446;-98.9594;35.3800 
297.501;-0.0181;0.1411;0.9707;-1.7090;24.5972;-89.5996;0.5878;-10.5798;-99.4098;35.3800 
297.610;-0.0181;0.1411;0.9707;-1.7090;24.5972;-89.5996;0.6866;-10.4205;-99.8547;35.4700 
297.610;-0.0181;0.1411;0.9707;-1.7090;24.5972;-89.5996;0.7800;-10.2557;-100.3052;35.4700 
297.610;-0.0737;0.1543;1.0415;9.1553;24.5361;-72.2656;0.9119;-10.0854;-100.6622;35.4600 
297.610;-0.0737;0.1543;1.0415;9.1553;24.5361;-72.2656;1.0437;-9.9152;-101.0138;35.4600 
297.620;-0.0737;0.1543;1.0415;9.1553;24.5361;-72.2656;1.1700;-9.7394;-101.3708;35.4300 
297.620;-0.0737;0.1543;1.0415;9.1553;24.5361;-72.2656;1.2964;-9.5691;-101.7224;35.4300 
297.620;-0.0737;0.1543;1.0415;9.1553;24.5361;-72.2656;1.4227;-9.3988;-102.0740;35.4800 
297.620;-0.0737;0.1543;1.0415;9.1553;24.5361;-72.2656;1.5491;-9.2230;-102.4200;35.4800 
297.620;-0.0737;0.1543;1.0415;9.1553;24.5361;-72.2656;1.6699;-9.0527;-102.7661;35.4800 
297.620;-0.0737;0.1543;1.0415;9.1553;24.5361;-72.2656;1.7908;-8.8770;-103.1122;35.4600 
297.620;-0.0518;0.2148;1.0640;10.3149;18.4937;-51.5137;1.9061;-8.7451;-103.3594;35.4600 
297.620;-0.0518;0.2148;1.0640;10.3149;18.4937;-51.5137;2.0270;-8.6078;-103.5956;35.4000 
297.630;-0.0518;0.2148;1.0640;10.3149;18.4937;-51.5137;2.1423;-8.4705;-103.8373;35.4000 
297.630;-0.0518;0.2148;1.0640;10.3149;18.4937;-51.5137;2.2577;-8.3331;-104.0735;35.4600 
297.630;-0.0518;0.2148;1.0640;10.3149;18.4937;-51.5137;2.3676;-8.1958;-104.3152;35.4600 
297.630;-0.0518;0.2148;1.0640;10.3149;18.4937;-51.5137;2.4829;-8.0585;-104.5514;35.4000 
297.650;-0.0518;0.2148;1.0640;10.3149;18.4937;-51.5137;2.5928;-7.9211;-104.7876;35.4000 
297.650;-0.0518;0.2148;1.0640;10.3149;18.4937;-51.5137;2.7081;-7.7838;-105.0183;35.4700 
297.650;-0.0166;0.1714;1.0625;6.8970;11.0474;-31.0059;2.7795;-7.6959;-105.1501;35.4700 
297.660;-0.0166;0.1714;1.0625;6.8970;11.0474;-31.0059;2.8510;-7.6025;-105.2820;35.4300 
297.660;-0.0166;0.1714;1.0625;6.8970;11.0474;-31.0059;2.9224;-7.5146;-105.4138;35.4300 
297.660;-0.0166;0.1714;1.0625;6.8970;11.0474;-31.0059;2.9938;-7.4268;-105.5457;35.4300 
297.660;-0.0166;0.1714;1.0625;6.8970;11.0474;-31.0059;3.0652;-7.3334;-105.6720;35.4300 
297.700;-0.0166;0.1714;1.0625;6.8970;11.0474;-31.0059;3.1366;-7.2455;-105.7983;35.4300 
297.700;-0.0166;0.1714;1.0625;6.8970;11.0474;-31.0059;3.2025;-7.1576;-105.9247;35.4400 
297.700;-0.0166;0.1714;1.0625;6.8970;11.0474;-31.0059;3.2739;-7.0697;-106.0565;35.4400 
297.700;0.0220;0.1064;1.0454;2.9907;4.3945;-13.3667;3.3014;-7.0258;-106.0895;35.5000 
297.720;0.0220;0.1064;1.0454;2.9907;4.3945;-13.3667;3.3344;-6.9818;-106.1279;35.5000 
297.720;0.0220;0.1064;1.0454;2.9907;4.3945;-13.3667;3.3618;-6.9379;-106.1664;35.4300 
297.720;0.0220;0.1064;1.0454;2.9907;4.3945;-13.3667;3.3893;-6.8939;-106.2048;35.4300 
297.720;0.0220;0.1064;1.0454;2.9907;4.3945;-13.3667;3.4167;-6.8500;-106.2378;35.4500 
297.810;0.0220;0.1064;1.0454;2.9907;4.3945;-13.3667;3.4442;-6.8060;-106.2762;35.4500 
297.810;0.0220;0.1064;1.0454;2.9907;4.3945;-13.3667;3.4772;-6.7621;-106.3092;35.4100 
297.810;0.0220;0.1064;1.0454;2.9907;4.3945;-13.3667;3.5046;-6.7181;-106.3422;35.4100 
297.810;0.0518;0.0420;1.0244;0.0000;-0.1221;-0.6104;3.4991;-6.7072;-106.3147;35.4700 
297.830;0.0518;0.0420;1.0244;0.0000;-0.1221;-0.6104;3.4937;-6.6962;-106.2872;35.4700 
297.830;0.0518;0.0420;1.0244;0.0000;-0.1221;-0.6104;3.4882;-6.6852;-106.2598;35.4300 
297.830;0.0518;0.0420;1.0244;0.0000;-0.1221;-0.6104;3.4882;-6.6797;-106.2268;35.4300 
297.830;0.0518;0.0420;1.0244;0.0000;-0.1221;-0.6104;3.4827;-6.6687;-106.1993;35.4000 
297.830;0.0518;0.0420;1.0244;0.0000;-0.1221;-0.6104;3.4772;-6.6577;-106.1719;35.4000 
297.830;0.0518;0.0420;1.0244;0.0000;-0.1221;-0.6104;3.4717;-6.6467;-106.1444;35.4000 
297.830;0.0518;0.0420;1.0244;0.0000;-0.1221;-0.6104;3.4717;-6.6357;-106.1169;35.5000 
297.830;0.0693;-0.0054;1.0059;-1.6479;-2.5024;6.2256;3.4442;-6.6412;-106.0565;35.5000 
297.830;0.0693;-0.0054;1.0059;-1.6479;-2.5024;6.2256;3.4222;-6.6467;-105.9961;35.4200 
297.830;0.0693;-0.0054;1.0059;-1.6479;-2.5024;6.2256;3.4003;-6.6577;-105.9357;35.4200 
297.830;0.0693;-0.0054;1.0059;-1.6479;-2.5024;6.2256;3.3783;-6.6632;-105.8752;35.4300 
297.830;0.0693;-0.0054;1.0059;-1.6479;-2.5024;6.2256;3.3508;-6.6687;-105.8148;35.4300 
297.830;0.0693;-0.0054;1.0059;-1.6479;-2.5024;6.2256;3.3289;-6.6797;-105.7544;35.4700 
297.830;0.0693;-0.0054;1.0059;-1.6479;-2.5024;6.2256;3.3069;-6.6852;-105.6940;35.4700 
297.830;0.0693;-0.0054;1.0059;-1.6479;-2.5024;6.2256;3.2794;-6.6907;-105.6390;35.4400 
297.830;0.0767;-0.0317;0.9932;-2.0752;-3.1128;8.3008;3.2520;-6.7017;-105.5676;35.4400 
297.830;0.0767;-0.0317;0.9932;-2.0752;-3.1128;8.3008;3.2190;-6.7181;-105.4962;35.3700 
297.830;0.0767;-0.0317;0.9932;-2.0752;-3.1128;8.3008;3.1915;-6.7291;-105.4248;35.3700 
297.830;0.0767;-0.0317;0.9932;-2.0752;-3.1128;8.3008;3.1586;-6.7401;-105.3534;35.4000 
297.830;0.0767;-0.0317;0.9932;-2.0752;-3.1128;8.3008;3.1256;-6.7511;-105.2820;35.4000 
297.830;0.0767;-0.0317;0.9932;-2.0752;-3.1128;8.3008;3.0981;-6.7621;-105.2106;35.3900 
297.830;0.0767;-0.0317;0.9932;-2.0752;-3.1128;8.3008;3.0652;-6.7786;-105.1447;35.3900 
297.830;0.0767;-0.0317;0.9932;-2.0752;-3.1128;8.3008;3.0377;-6.7896;-105.0732;35.3900 
297.830;0.0762;-0.0405;0.9868;-1.7700;-2.6855;7.3242;3.0048;-6.7950;-105.0073;35.4000 
297.830;0.0762;-0.0405;0.9868;-1.7700;-2.6855;7.3242;2.9773;-6.8060;-104.9469;35.4000 
297.830;0.0762;-0.0405;0.9868;-1.7700;-2.6855;7.3242;2.9498;-6.8170;-104.8810;35.4000 
297.830;0.0762;-0.0405;0.9868;-1.7700;-2.6855;7.3242;2.9169;-6.8280;-104.8151;35.4000 
297.830;0.0762;-0.0405;0.9868;-1.7700;-2.6855;7.3242;2.8894;-6.8335;-104.7491;35.4000 
297.830;0.0762;-0.0405;0.9868;-1.7700;-2.6855;7.3242;2.8564;-6.8445;-104.6832;35.4000 
297.830;0.0762;-0.0405;0.9868;-1.7700;-2.6855;7.3242;2.8290;-6.8555;-104.6228;35.4200 
297.850;0.0762;-0.0405;0.9868;-1.7700;-2.6855;7.3242;2.8015;-6.8610;-104.5569;35.4200 
297.850;0.0723;-0.0376;0.9858;-1.1597;-1.7700;5.0049;2.7740;-6.8665;-104.5074;35.4700 
297.850;0.0723;-0.0376;0.9858;-1.1597;-1.7700;5.0049;2.7521;-6.8665;-104.4525;35.4700 
297.850;0.0723;-0.0376;0.9858;-1.1597;-1.7700;5.0049;2.7301;-6.8719;-104.4031;35.4300 
297.850;0.0723;-0.0376;0.9858;-1.1597;-1.7700;5.0049;2.7026;-6.8774;-104.3536;35.4300 
297.850;0.0723;-0.0376;0.9858;-1.1597;-1.7700;5.0049;2.6807;-6.8774;-104.2987;35.4400 
297.850;0.0723;-0.0376;0.9858;-1.1597;-1.7700;5.0049;2.6532;-6.8829;-104.2493;35.4400 
297.850;0.0723;-0.0376;0.9858;-1.1597;-1.7700;5.0049;2.6312;-6.8829;-104.1943;35.4600 
297.850;0.0723;-0.0376;0.9858;-1.1597;-1.7700;5.0049;2.6093;-6.8884;-104.1449;35.4600 
297.850;0.0669;-0.0293;0.9873;-0.4883;-0.7935;2.5024;2.5928;-6.8829;-104.1064;35.4600 
297.850;0.0669;-0.0293;0.9873;-0.4883;-0.7935;2.5024;2.5708;-6.8774;-104.0680;35.4500 
297.850;0.0669;-0.0293;0.9873;-0.4883;-0.7935;2.5024;2.5543;-6.8774;-104.0295;35.4500 
297.850;0.0669;-0.0293;0.9873;-0.4883;-0.7935;2.5024;2.5378;-6.8719;-103.9911;35.4700 
297.850;0.0669;-0.0293;0.9873;-0.4883;-0.7935;2.5024;2.5214;-6.8665;-103.9526;35.4700 
297.850;0.0669;-0.0293;0.9873;-0.4883;-0.7935;2.5024;2.5049;-6.8665;-103.9142;35.4000 
297.850;0.0669;-0.0293;0.9873;-0.4883;-0.7935;2.5024;2.4884;-6.8610;-103.8757;35.4000 
297.850;0.0669;-0.0293;0.9873;-0.4883;-0.7935;2.5024;2.4719;-6.8610;-103.8428;35.4200 
297.850;0.0625;-0.0205;0.9902;0.0000;-0.1221;0.5493;2.4554;-6.8500;-103.8153;35.4200 
297.850;0.0625;-0.0205;0.9902;0.0000;-0.1221;0.5493;2.4445;-6.8445;-103.7823;35.4000 
297.850;0.0625;-0.0205;0.9902;0.0000;-0.1221;0.5493;2.4335;-6.8335;-103.7549;35.4000 
297.850;0.0625;-0.0205;0.9902;0.0000;-0.1221;0.5493;2.4225;-6.8280;-103.7274;35.4300 
297.850;0.0625;-0.0205;0.9902;0.0000;-0.1221;0.5493;2.4115;-6.8170;-103.7000;35.4300 
297.850;0.0625;-0.0205;0.9902;0.0000;-0.1221;0.5493;2.4005;-6.8115;-103.6780;35.5200 
297.850;0.0625;-0.0205;0.9902;0.0000;-0.1221;0.5493;2.3840;-6.8005;-103.6505;35.5200 
297.850;0.0625;-0.0205;0.9902;0.0000;-0.1221;0.5493;2.3730;-6.7950;-103.6230;35.4400 
297.850;0.0596;-0.0127;0.9932;0.1831;0.2441;-0.6104;2.3676;-6.7841;-103.6011;35.4400 
297.850;0.0596;-0.0127;0.9932;0.1831;0.2441;-0.6104;2.3566;-6.7731;-103.5846;35.4400 
297.850;0.0596;-0.0127;0.9932;0.1831;0.2441;-0.6104;2.3511;-6.7621;-103.5626;35.3400 
297.850;0.0596;-0.0127;0.9932;0.1831;0.2441;-0.6104;2.3401;-6.7511;-103.5461;35.3400 
297.850;0.0596;-0.0127;0.9932;0.1831;0.2441;-0.6104;2.3291;-6.7401;-103.5242;35.4300 
297.870;0.0596;-0.0127;0.9932;0.1831;0.2441;-0.6104;2.3236;-6.7291;-103.5077;35.4300 
297.870;0.0596;-0.0127;0.9932;0.1831;0.2441;-0.6104;2.3126;-6.7181;-103.4912;35.4300 
297.870;0.0596;-0.0127;0.9932;0.1831;0.2441;-0.6104;2.3071;-6.7072;-103.4692;35.4300 
297.870;0.0581;-0.0088;0.9956;0.3052;0.3662;-1.0986;2.2961;-6.6962;-103.4528;35.4300 
297.870;0.0581;-0.0088;0.9956;0.3052;0.3662;-1.0986;2.2906;-6.6852;-103.4418;35.4300 
297.870;0.0581;-0.0088;0.9956;0.3052;0.3662;-1.0986;2.2852;-6.6742;-103.4253;35.3800 
297.870;0.0581;-0.0088;0.9956;0.3052;0.3662;-1.0986;2.2797;-6.6632;-103.4088;35.3800 
297.870;0.0581;-0.0088;0.9956;0.3052;0.3662;-1.0986;2.2742;-6.6467;-103.3923;35.3000 
297.870;0.0581;-0.0088;0.9956;0.3052;0.3662;-1.0986;2.2632;-6.6357;-103.3759;35.3000 
297.870;0.0581;-0.0088;0.9956;0.3052;0.3662;-1.0986;2.2577;-6.6248;-103.3594;35.4000 
297.870;0.0581;-0.0088;0.9956;0.3052;0.3662;-1.0986;2.2522;-6.6138;-103.3429;35.4000 
297.870;0.0581;-0.0068;0.9961;0.3052;0.3052;-1.0376;2.2467;-6.6028;-103.3264;35.4000 
297.870;0.0581;-0.0068;0.9961;0.3052;0.3052;-1.0376;2.2357;-6.5918;-103.3099;35.4600 
297.880;0.0581;-0.0068;0.9961;0.3052;0.3052;-1.0376;2.2302;-6.5808;-103.2935;35.4600 
297.880;0.0581;-0.0068;0.9961;0.3052;0.3052;-1.0376;2.2247;-6.5698;-103.2825;35.5200 
297.880;0.0581;-0.0068;0.9961;0.3052;0.3052;-1.0376;2.2192;-6.5588;-103.2660;35.5200 
297.880;0.0581;-0.0068;0.9961;0.3052;0.3052;-1.0376;2.2137;-6.5479;-103.2495;35.4300 
297.900;0.0581;-0.0068;0.9961;0.3052;0.3052;-1.0376;2.2083;-6.5369;-103.2330;35.4300 
297.900;0.0581;-0.0068;0.9961;0.3052;0.3052;-1.0376;2.2028;-6.5259;-103.2220;35.3700 
297.900;0.0581;-0.0068;0.9966;0.2441;0.2441;-0.7935;2.1918;-6.5149;-103.2056;35.3700 
297.900;0.0581;-0.0068;0.9966;0.2441;0.2441;-0.7935;2.1863;-6.5039;-103.1891;35.4200 
297.900;0.0581;-0.0068;0.9966;0.2441;0.2441;-0.7935;2.1808;-6.4984;-103.1726;35.4200 
297.900;0.0581;-0.0068;0.9966;0.2441;0.2441;-0.7935;2.1753;-6.4874;-103.1561;35.4100 
297.900;0.0581;-0.0068;0.9966;0.2441;0.2441;-0.7935;2.1698;-6.4764;-103.1396;35.4100 
297.900;0.0581;-0.0068;0.9966;0.2441;0.2441;-0.7935;2.1588;-6.4655;-103.1232;35.4400 
297.900;0.0581;-0.0068;0.9966;0.2441;0.2441;-0.7935;2.1533;-6.4545;-103.1067;35.4400 
297.900;0.0581;-0.0068;0.9966;0.2441;0.2441;-0.7935;2.1478;-6.4435;-103.0902;35.4400 
297.900;0.0586;-0.0078;0.9966;0.1221;0.0610;-0.4272;2.1423;-6.4325;-103.0737;35.4400 
298.020;0.0586;-0.0078;0.9966;0.1221;0.0610;-0.4272;2.1313;-6.4270;-103.0518;35.4400 
298.020;0.0586;-0.0078;0.9966;0.1221;0.0610;-0.4272;2.1259;-6.4160;-103.0353;35.4400 
298.020;0.0586;-0.0078;0.9966;0.1221;0.0610;-0.4272;2.1204;-6.4050;-103.0188;35.4400 
298.020;0.0586;-0.0078;0.9966;0.1221;0.0610;-0.4272;2.1094;-6.3995;-103.0023;35.4500 
298.030;0.0586;-0.0078;0.9966;0.1221;0.0610;-0.4272;2.1039;-6.3885;-102.9803;35.4500 
298.030;0.0586;-0.0078;0.9966;0.1221;0.0610;-0.4272;2.0984;-6.3776;-102.9639;35.4200 
298.030;0.0596;-0.0093;0.9961;0.0610;0.0000;-0.1221;2.0874;-6.3721;-102.9419;35.4200 
298.030;0.0596;-0.0093;0.9961;0.0610;0.0000;-0.1221;2.0819;-6.3611;-102.9254;35.3800 
298.030;0.0596;-0.0093;0.9961;0.0610;0.0000;-0.1221;2.0709;-6.3556;-102.9034;35.3800 
298.030;0.0596;-0.0093;0.9961;0.0610;0.0000;-0.1221;2.0654;-6.3446;-102.8815;35.4200 
298.030;0.0596;-0.0093;0.9961;0.0610;0.0000;-0.1221;2.0544;-6.3391;-102.8595;35.4200 
298.030;0.0596;-0.0093;0.9961;0.0610;0.0000;-0.1221;2.0490;-6.3281;-102.8430;35.4000 
298.030;0.0596;-0.0093;0.9961;0.0610;0.0000;-0.1221;2.0380;-6.3226;-102.8210;35.4000 
298.030;0.0596;-0.0093;0.9961;0.0610;0.0000;-0.1221;2.0325;-6.3116;-102.8046;35.5200 
298.030;0.0601;-0.0103;0.9961;0.0000;0.0000;0.0000;2.0215;-6.3062;-102.7826;35.5200 
298.030;0.0601;-0.0103;0.9961;0.0000;0.0000;0.0000;2.0160;-6.2952;-102.7661;35.3300 
298.030;0.0601;-0.0103;0.9961;0.0000;0.0000;0.0000;2.0050;-6.2897;-102.7441;35.3300 
298.030;0.0601;-0.0103;0.9961;0.0000;0.0000;0.0000;1.9995;-6.2787;-102.7277;35.3300 
298.030;0.0601;-0.0103;0.9961;0.0000;0.0000;0.0000;1.9885;-6.2732;-102.7112;35.4000 
298.030;0.0601;-0.0103;0.9961;0.0000;0.0000;0.0000;1.9830;-6.2622;-102.6892;35.4000 
298.050;0.0601;-0.0103;0.9961;0.0000;0.0000;0.0000;1.9720;-6.2567;-102.6672;35.4000 
298.050;0.0601;-0.0103;0.9961;0.0000;0.0000;0.0000;1.9666;-6.2512;-102.6508;35.4000 
298.050;0.0601;-0.0107;0.9961;0.0000;-0.0610;0.0610;1.9556;-6.2402;-102.6288;35.4000 
298.080;0.0601;-0.0107;0.9961;0.0000;-0.0610;0.0610;1.9501;-6.2347;-102.6068;35.4000 
298.080;0.0601;-0.0107;0.9961;0.0000;-0.0610;0.0610;1.9391;-6.2238;-102.5903;35.4600 
298.080;0.0601;-0.0107;0.9961;0.0000;-0.0610;0.0610;1.9336;-6.2183;-102.5684;35.4600 
298.080;0.0601;-0.0107;0.9961;0.0000;-0.0610;0.0610;1.9226;-6.2128;-102.5464;35.4000 
298.100;0.0601;-0.0107;0.9961;0.0000;-0.0610;0.0610;1.9171;-6.2018;-102.5299;35.4000 
298.100;0.0601;-0.0107;0.9961;0.0000;-0.0610;0.0610;1.9061;-6.1963;-102.5079;35.4800 
298.100;0.0601;-0.0107;0.9961;0.0000;-0.0610;0.0610;1.9006;-6.1908;-102.4860;35.4800 
298.100;0.0605;-0.0112;0.9961;0.0000;-0.0610;0.1221;1.8896;-6.1798;-102.4640;35.4200 
298.120;0.0605;-0.0112;0.9961;0.0000;-0.0610;0.1221;1.8842;-6.1743;-102.4420;35.4200 
298.120;0.0605;-0.0112;0.9961;0.0000;-0.0610;0.1221;1.8787;-6.1688;-102.4200;35.3400 
298.120;0.0605;-0.0112;0.9961;0.0000;-0.0610;0.1221;1.8677;-6.1578;-102.3981;35.3400 
298.120;0.0605;-0.0112;0.9961;0.0000;-0.0610;0.1221;1.8622;-6.1523;-102.3761;35.3400 
298.220;0.0605;-0.0112;0.9961;0.0000;-0.0610;0.1221;1.8512;-6.1469;-102.3596;35.4200 
298.220;0.0605;-0.0112;0.9961;0.0000;-0.0610;0.1221;1.8457;-6.1359;-102.3376;35.4200 
298.220;0.0605;-0.0112;0.9961;0.0000;-0.0610;0.1221;1.8347;-6.1304;-102.3212;35.4700 
298.220;0.0605;-0.0112;0.9956;0.0000;0.0000;0.0610;1.8292;-6.1249;-102.2992;35.4700 
298.240;0.0605;-0.0112;0.9956;0.0000;0.0000;0.0610;1.8182;-6.1139;-102.2827;35.4400 
298.240;0.0605;-0.0112;0.9956;0.0000;0.0000;0.0610;1.8127;-6.1084;-102.2662;35.4400 
298.240;0.0605;-0.0112;0.9956;0.0000;0.0000;0.0610;1.8018;-6.0974;-102.2443;35.4500 
298.240;0.0605;-0.0112;0.9956;0.0000;0.0000;0.0610;1.7963;-6.0919;-102.2278;35.4500 
298.240;0.0605;-0.0112;0.9956;0.0000;0.0000;0.0610;1.7908;-6.0864;-102.2058;35.4400 
298.240;0.0605;-0.0112;0.9956;0.0000;0.0000;0.0610;1.7798;-6.0754;-102.1893;35.4400 
298.240;0.0605;-0.0112;0.9956;0.0000;0.0000;0.0610;1.7743;-6.0699;-102.1729;35.4300 
298.240;0.0601;-0.0107;0.9956;0.0000;0.0000;0.0610;1.7633;-6.0645;-102.1509;35.4300 
298.240;0.0601;-0.0107;0.9956;0.0000;0.0000;0.0610;1.7578;-6.0535;-102.1344;35.3900 
298.240;0.0601;-0.0107;0.9956;0.0000;0.0000;0.0610;1.7523;-6.0480;-102.1124;35.3900 
298.240;0.0601;-0.0107;0.9956;0.0000;0.0000;0.0610;1.7413;-6.0425;-102.0959;35.3900 
298.240;0.0601;-0.0107;0.9956;0.0000;0.0000;0.0610;1.7358;-6.0315;-102.0795;35.4200 
298.240;0.0601;-0.0107;0.9956;0.0000;0.0000;0.0610;1.7303;-6.0260;-102.0575;35.4200 
298.240;0.0601;-0.0107;0.9956;0.0000;0.0000;0.0610;1.7194;-6.0205;-102.0410;35.4000 
298.240;0.0601;-0.0107;0.9956;0.0000;0.0000;0.0610;1.7139;-6.0095;-102.0190;35.4000 
298.270;0.0605;-0.0107;0.9951;0.0000;0.0000;0.0000;1.7084;-6.0040;-102.0026;35.4500 
298.270;0.0605;-0.0107;0.9951;0.0000;0.0000;0.0000;1.6974;-5.9985;-101.9861;35.4500 
298.270;0.0605;-0.0107;0.9951;0.0000;0.0000;0.0000;1.6919;-5.9875;-101.9641;35.4600 
298.270;0.0605;-0.0107;0.9951;0.0000;0.0000;0.0000;1.6864;-5.9821;-101.9476;35.4600 
298.300;0.0605;-0.0107;0.9951;0.0000;0.0000;0.0000;1.6754;-5.9766;-101.9312;35.4200 
298.300;0.0605;-0.0107;0.9951;0.0000;0.0000;0.0000;1.6699;-5.9656;-101.9147;35.4200 
298.300;0.0605;-0.0107;0.9951;0.0000;0.0000;0.0000;1.6644;-5.9601;-101.8982;35.4500 
298.300;0.0605;-0.0107;0.9951;0.0000;0.0000;0.0000;1.6534;-5.9546;-101.8762;35.4500 
298.310;0.0601;-0.0103;0.9951;0.0610;0.0000;0.0000;1.6479;-5.9436;-101.8597;35.3800 
298.310;0.0601;-0.0103;0.9951;0.0610;0.0000;0.0000;1.6425;-5.9381;-101.8433;35.3800 
298.310;0.0601;-0.0103;0.9951;0.0610;0.0000;0.0000;1.6370;-5.9326;-101.8268;35.4200 
298.310;0.0601;-0.0103;0.9951;0.0610;0.0000;0.0000;1.6260;-5.9271;-101.8103;35.4200 
298.330;0.0601;-0.0103;0.9951;0.0610;0.0000;0.0000;1.6205;-5.9161;-101.7938;35.4200 
298.330;0.0601;-0.0103;0.9951;0.0610;0.0000;0.0000;1.6150;-5.9106;-101.7773;35.4300 
298.330;0.0601;-0.0103;0.9951;0.0610;0.0000;0.0000;1.6095;-5.9052;-101.7609;35.4300 
298.330;0.0601;-0.0103;0.9951;0.0610;0.0000;0.0000;1.5985;-5.8942;-101.7444;35.4600 
298.420;0.0601;-0.0103;0.9956;0.0610;0.0000;0.0000;1.5930;-5.8887;-101.7279;35.4600 
298.420;0.0601;-0.0103;0.9956;0.0610;0.0000;0.0000;1.5875;-5.8832;-101.7114;35.4900 
298.420;0.0601;-0.0103;0.9956;0.0610;0.0000;0.0000;1.5820;-5.8777;-101.6895;35.4900 
298.430;0.0601;-0.0103;0.9956;0.0610;0.0000;0.0000;1.5765;-5.8667;-101.6730;35.4800 
298.430;0.0601;-0.0103;0.9956;0.0610;0.0000;0.0000;1.5656;-5.8612;-101.6565;35.4800 
298.430;0.0601;-0.0103;0.9956;0.0610;0.0000;0.0000;1.5601;-5.8557;-101.6400;35.3800 
298.430;0.0601;-0.0103;0.9956;0.0610;0.0000;0.0000;1.5546;-5.8502;-101.6235;35.3800 
298.430;0.0601;-0.0103;0.9956;0.0610;0.0000;0.0000;1.5491;-5.8392;-101.6071;35.4500 
298.430;0.0605;-0.0103;0.9951;0.0610;0.0000;0.0000;1.5436;-5.8337;-101.5906;35.4500 
298.430;0.0605;-0.0103;0.9951;0.0610;0.0000;0.0000;1.5381;-5.8282;-101.5741;35.4800 
298.430;0.0605;-0.0103;0.9951;0.0610;0.0000;0.0000;1.5271;-5.8228;-101.5521;35.4800 
298.430;0.0605;-0.0103;0.9951;0.0610;0.0000;0.0000;1.5216;-5.8118;-101.5356;35.4200 
298.430;0.0605;-0.0103;0.9951;0.0610;0.0000;0.0000;1.5161;-5.8063;-101.5192;35.4200 
298.430;0.0605;-0.0103;0.9951;0.0610;0.0000;0.0000;1.5106;-5.8008;-101.5027;35.4200 
298.430;0.0605;-0.0103;0.9951;0.0610;0.0000;0.0000;1.5051;-5.7953;-101.4862;35.4700 
298.430;0.0605;-0.0103;0.9951;0.0610;0.0000;0.0000;1.4996;-5.7843;-101.4697;35.4700 
298.430;0.0605;-0.0103;0.9951;0.0610;0.0000;0.0000;1.4886;-5.7788;-101.4532;35.4500 
298.430;0.0605;-0.0103;0.9951;0.0610;0.0000;0.0000;1.4832;-5.7733;-101.4368;35.4500 
298.430;0.0605;-0.0103;0.9951;0.0610;0.0000;0.0000;1.4777;-5.7678;-101.4258;35.4500 
298.440;0.0605;-0.0103;0.9951;0.0610;0.0000;0.0000;1.4722;-5.7623;-101.4093;35.4500 
298.440;0.0605;-0.0103;0.9951;0.0610;0.0000;0.0000;1.4667;-5.7513;-101.3928;35.4000 
298.440;0.0605;-0.0103;0.9951;0.0610;0.0000;0.0000;1.4612;-5.7458;-101.3763;35.4000 
298.440;0.0605;-0.0103;0.9951;0.0610;0.0000;0.0000;1.4557;-5.7404;-101.3599;35.4300 
298.460;0.0605;-0.0103;0.9951;0.0610;0.0000;0.0000;1.4502;-5.7349;-101.3489;35.4300 
298.460;0.0605;-0.0103;0.9951;0.0610;0.0000;0.0000;1.4392;-5.7294;-101.3324;35.4000 
298.460;0.0605;-0.0103;0.9951;0.0610;0.0000;0.0000;1.4337;-5.7239;-101.3159;35.4000 
298.510;0.0605;-0.0103;0.9951;0.0610;0.0000;0.0000;1.4282;-5.7129;-101.2994;35.3000 
298.510;0.0605;-0.0103;0.9951;0.0610;0.0000;0.0000;1.4227;-5.7074;-101.2830;35.3000 
298.510;0.0605;-0.0103;0.9951;0.0610;0.0000;0.0000;1.4172;-5.7019;-101.2665;35.4900 
298.510;0.0605;-0.0103;0.9951;0.0610;0.0000;0.0000;1.4117;-5.6964;-101.2500;35.4900 
298.530;0.0605;-0.0103;0.9951;0.0610;0.0000;0.0000;1.4063;-5.6909;-101.2335;35.4900 
298.530;0.0605;-0.0103;0.9951;0.0610;0.0000;0.0000;1.4008;-5.6854;-101.2170;35.4300 
298.530;0.0605;-0.0107;0.9951;0.0610;0.0000;0.0000;1.3953;-5.6744;-101.2006;35.4300 
298.530;0.0605;-0.0107;0.9951;0.0610;0.0000;0.0000;1.3898;-5.6689;-101.1786;35.4300 
298.530;0.0605;-0.0107;0.9951;0.0610;0.0000;0.0000;1.3788;-5.6635;-101.1621;35.4300 
298.530;0.0605;-0.0107;0.9951;0.0610;0.0000;0.0000;1.3733;-5.6580;-101.1456;35.4900 
298.530;0.0605;-0.0107;0.9951;0.0610;0.0000;0.0000;1.3678;-5.6525;-101.1292;35.4900 
298.530;0.0605;-0.0107;0.9951;0.0610;0.0000;0.0000;1.3623;-5.6470;-101.1127;35.4100 
298.630;0.0605;-0.0107;0.9951;0.0610;0.0000;0.0000;1.3568;-5.6415;-101.1017;35.4100 
298.630;0.0605;-0.0107;0.9951;0.0610;0.0000;0.0000;1.3513;-5.6305;-101.0852;35.4600 
298.630;0.0605;-0.0103;0.9951;0.0000;0.0000;0.0000;1.3458;-5.6250;-101.0687;35.4600 
298.630;0.0605;-0.0103;0.9951;0.0000;0.0000;0.0000;1.3403;-5.6195;-101.0577;35.3700 
298.630;0.0605;-0.0103;0.9951;0.0000;0.0000;0.0000;1.3348;-5.6140;-101.0413;35.3700 
298.630;0.0605;-0.0103;0.9951;0.0000;0.0000;0.0000;1.3293;-5.6085;-101.0303;35.4200 
298.640;0.0605;-0.0103;0.9951;0.0000;0.0000;0.0000;1.3184;-5.6030;-101.0138;35.4200 
298.640;0.0605;-0.0103;0.9951;0.0000;0.0000;0.0000;1.3129;-5.5975;-100.9973;35.4100 
298.660;0.0605;-0.0103;0.9951;0.0000;0.0000;0.0000;1.3074;-5.5920;-100.9808;35.4100 
298.660;0.0605;-0.0103;0.9951;0.0000;0.0000;0.0000;1.3019;-5.5811;-100.9698;35.4100 
298.660;0.0605;-0.0107;0.9951;0.0000;0.0000;0.0000;1.2964;-5.5756;-100.9534;35.5000 
298.660;0.0605;-0.0107;0.9951;0.0000;0.0000;0.0000;1.2909;-5.5701;-100.9369;35.5000 
298.660;0.0605;-0.0107;0.9951;0.0000;0.0000;0.0000;1.2854;-5.5646;-100.9204;35.4300 
298.660;0.0605;-0.0107;0.9951;0.0000;0.0000;0.0000;1.2799;-5.5591;-100.9094;35.4300 
298.660;0.0605;-0.0107;0.9951;0.0000;0.0000;0.0000;1.2744;-5.5536;-100.8929;35.4500 
298.660;0.0605;-0.0107;0.9951;0.0000;0.0000;0.0000;1.2689;-5.5481;-100.8765;35.4500 
298.660;0.0605;-0.0107;0.9951;0.0000;0.0000;0.0000;1.2634;-5.5426;-100.8655;35.4400 
298.660;0.0605;-0.0107;0.9951;0.0000;0.0000;0.0000;1.2579;-5.5371;-100.8490;35.4400 
298.660;0.0601;-0.0107;0.9951;0.0000;0.0000;0.0000;1.2469;-5.5316;-100.8325;35.4200 
298.660;0.0601;-0.0107;0.9951;0.0000;0.0000;0.0000;1.2415;-5.5206;-100.8160;35.4200 
298.660;0.0601;-0.0107;0.9951;0.0000;0.0000;0.0000;1.2360;-5.5151;-100.7996;35.4000 
298.660;0.0601;-0.0107;0.9951;0.0000;0.0000;0.0000;1.2305;-5.5096;-100.7886;35.4000 
298.660;0.0601;-0.0107;0.9951;0.0000;0.0000;0.0000;1.2250;-5.5042;-100.7721;35.4700 
298.660;0.0601;-0.0107;0.9951;0.0000;0.0000;0.0000;1.2195;-5.4987;-100.7556;35.4700 
298.660;0.0601;-0.0107;0.9951;0.0000;0.0000;0.0000;1.2140;-5.4932;-100.7391;35.4700 
298.660;0.0601;-0.0107;0.9951;0.0000;0.0000;0.0000;1.2085;-5.4877;-100.7227;35.4600 
298.660;0.0601;-0.0107;0.9951;0.0000;0.0000;0.0000;1.2030;-5.4822;-100.7062;35.4600 
298.660;0.0601;-0.0107;0.9951;0.0000;0.0000;0.0000;1.1975;-5.4767;-100.6897;35.3500 
298.660;0.0601;-0.0107;0.9951;0.0000;0.0000;0.0000;1.1920;-5.4712;-100.6732;35.3500 
298.660;0.0601;-0.0107;0.9951;0.0000;0.0000;0.0000;1.1865;-5.4657;-100.6567;35.4300 
298.660;0.0601;-0.0107;0.9951;0.0000;0.0000;0.0000;1.1810;-5.4602;-100.6403;35.4300 
298.660;0.0601;-0.0107;0.9951;0.0000;0.0000;0.0000;1.1755;-5.4547;-100.6238;35.4500 
298.660;0.0601;-0.0107;0.9951;0.0000;0.0000;0.0000;1.1700;-5.4492;-100.6073;35.4500 
298.660;0.0601;-0.0107;0.9951;0.0000;0.0000;0.0000;1.1646;-5.4437;-100.5908;35.4000 
298.660;0.0601;-0.0107;0.9946;0.0000;0.0000;0.0000;1.1591;-5.4327;-100.5798;35.4000 
298.660;0.0601;-0.0107;0.9946;0.0000;0.0000;0.0000;1.1536;-5.4272;-100.5634;35.4000 
298.660;0.0601;-0.0107;0.9946;0.0000;0.0000;0.0000;1.1481;-5.4218;-100.5469;35.4000 
298.660;0.0601;-0.0107;0.9946;0.0000;0.0000;0.0000;1.1426;-5.4163;-100.5359;35.4200 
298.680;0.0601;-0.0107;0.9946;0.0000;0.0000;0.0000;1.1371;-5.4108;-100.5194;35.4200 
298.680;0.0601;-0.0107;0.9946;0.0000;0.0000;0.0000;1.1316;-5.4053;-100.5029;35.4300 
298.680;0.0601;-0.0107;0.9946;0.0000;0.0000;0.0000;1.1261;-5.3998;-100.4919;35.4300 
298.680;0.0601;-0.0107;0.9946;0.0000;0.0000;0.0000;1.1206;-5.3943;-100.4755;35.4300 
298.680;0.0601;-0.0107;0.9946;0.0000;0.0000;0.0000;1.1151;-5.3888;-100.4590;35.4000 
298.680;0.0601;-0.0107;0.9946;0.0000;0.0000;0.0000;1.1096;-5.3833;-100.4480;35.4000 
298.680;0.0601;-0.0107;0.9946;0.0000;0.0000;0.0000;1.1041;-5.3778;-100.4315;35.4000 
298.680;0.0601;-0.0107;0.9946;0.0000;0.0000;0.0000;1.0986;-5.3723;-100.4205;35.4000 
298.680;0.0601;-0.0107;0.9946;0.0000;0.0000;0.0000;1.0931;-5.3668;-100.4041;35.4600 
298.680;0.0601;-0.0107;0.9946;0.0000;0.0000;0.0000;1.0876;-5.3613;-100.3931;35.4600 
298.680;0.0601;-0.0107;0.9946;0.0000;0.0000;0.0000;1.0822;-5.3558;-100.3766;35.4100 
298.680;0.0601;-0.0107;0.9946;0.0000;0.0000;0.0000;1.0767;-5.3503;-100.3656;35.4100 
298.680;0.0601;-0.0103;0.9946;0.0610;0.0000;0.0000;1.0712;-5.3448;-100.3491;35.4700 
298.680;0.0601;-0.0103;0.9946;0.0610;0.0000;0.0000;1.0657;-5.3394;-100.3381;35.4700 
298.680;0.0601;-0.0103;0.9946;0.0610;0.0000;0.0000;1.0602;-5.3339;-100.3217;35.4500 
298.680;0.0601;-0.0103;0.9946;0.0610;0.0000;0.0000;1.0547;-5.3284;-100.3052;35.4500 
298.680;0.0601;-0.0103;0.9946;0.0610;0.0000;0.0000;1.0492;-5.3229;-100.2942;35.4100 
298.680;0.0601;-0.0103;0.9946;0.0610;0.0000;0.0000;1.0437;-5.3174;-100.2777;35.4100 
298.680;0.0601;-0.0103;0.9946;0.0610;0.0000;0.0000;1.0437;-5.3119;-100.2667;35.4500 
298.680;0.0601;-0.0103;0.9946;0.0610;0.0000;0.0000;1.0382;-5.3064;-100.2502;35.4500 
298.680;0.0601;-0.0103;0.9946;0.0610;0.0000;0.0000;1.0327;-5.3009;-100.2393;35.4500 
298.680;0.0601;-0.0103;0.9946;0.0610;0.0000;0.0000;1.0272;-5.2954;-100.2228;35.4100 
298.680;0.0601;-0.0103;0.9946;0.0610;0.0000;0.0000;1.0217;-5.2899;-100.2118;35.4100 
298.680;0.0601;-0.0103;0.9946;0.0610;0.0000;0.0000;1.0162;-5.2844;-100.1953;35.3400 
298.690;0.0601;-0.0103;0.9946;0.0610;0.0000;0.0000;1.0107;-5.2789;-100.1843;35.3400 
298.690;0.0601;-0.0103;0.9946;0.0610;0.0000;0.0000;1.0107;-5.2734;-100.1678;35.4400 
298.690;0.0601;-0.0103;0.9946;0.0610;0.0000;0.0000;1.0052;-5.2679;-100.1569;35.4400 
298.700;0.0601;-0.0103;0.9946;0.0610;0.0000;0.0000;0.9998;-5.2625;-100.1404;35.4300 
298.700;0.0601;-0.0103;0.9946;0.0610;0.0000;0.0000;0.9943;-5.2570;-100.1294;35.4300 
298.700;0.0601;-0.0103;0.9946;0.0610;0.0000;0.0000;0.9888;-5.2515;-100.1129;35.4300 
298.700;0.0601;-0.0103;0.9946;0.0610;0.0000;0.0000;0.9833;-5.2515;-100.1019;35.4300 
298.710;0.0601;-0.0103;0.9946;0.0610;0.0000;0.0000;0.9778;-5.2460;-100.0854;35.4600 
298.710;0.0601;-0.0103;0.9946;0.0610;0.0000;0.0000;0.9778;-5.2405;-100.0745;35.4600 
298.710;0.0601;-0.0103;0.9946;0.0610;0.0000;0.0000;0.9723;-5.2350;-100.0580;35.4200 
298.710;0.0601;-0.0103;0.9946;0.0610;0.0000;0.0000;0.9668;-5.2295;-100.0470;35.4200 
298.720;0.0601;-0.0103;0.9946;0.0610;0.0000;0.0000;0.9613;-5.2240;-100.0360;35.4200 
298.720;0.0605;-0.0103;0.9946;0.0610;0.0000;0.0000;0.9558;-5.2185;-100.0250;35.4200 
298.720;0.0605;-0.0103;0.9946;0.0610;0.0000;0.0000;0.9503;-5.2130;-100.0085;35.4200 
298.720;0.0605;-0.0103;0.9946;0.0610;0.0000;0.0000;0.9503;-5.2075;-99.9976;35.4400 
298.850;0.0605;-0.0103;0.9946;0.0610;0.0000;0.0000;0.9448;-5.2020;-99.9866;35.4400 
298.850;0.0605;-0.0103;0.9946;0.0610;0.0000;0.0000;0.9393;-5.1965;-99.9756;35.3800 
298.850;0.0605;-0.0103;0.9946;0.0610;0.0000;0.0000;0.9338;-5.1910;-99.9591;35.3800 
298.850;0.0605;-0.0103;0.9946;0.0610;0.0000;0.0000;0.9283;-5.1855;-99.9481;35.4500 
298.860;0.0605;-0.0103;0.9946;0.0610;0.0000;0.0000;0.9283;-5.1801;-99.9371;35.4500 
298.860;0.0610;-0.0103;0.9946;0.0000;0.0000;0.0000;0.9229;-5.1801;-99.9261;35.4600 
298.860;0.0610;-0.0103;0.9946;0.0000;0.0000;0.0000;0.9174;-5.1746;-99.9152;35.4600 
298.860;0.0610;-0.0103;0.9946;0.0000;0.0000;0.0000;0.9119;-5.1691;-99.9042;35.3600 
298.860;0.0610;-0.0103;0.9946;0.0000;0.0000;0.0000;0.9064;-5.1636;-99.8932;35.3600 
298.860;0.0610;-0.0103;0.9946;0.0000;0.0000;0.0000;0.9009;-5.1581;-99.8822;35.3700 
298.860;0.0610;-0.0103;0.9946;0.0000;0.0000;0.0000;0.8954;-5.1526;-99.8657;35.3700 
298.860;0.0610;-0.0103;0.9946;0.0000;0.0000;0.0000;0.8954;-5.1471;-99.8547;35.3900 
298.860;0.0610;-0.0103;0.9946;0.0000;0.0000;0.0000;0.8899;-5.1416;-99.8438;35.3900 
298.860;0.0610;-0.0103;0.9946;0.0000;0.0000;0.0000;0.8844;-5.1416;-99.8328;35.3700 
298.860;0.0610;-0.0103;0.9946;0.0000;0.0000;0.0000;0.8789;-5.1361;-99.8218;35.3700 
298.860;0.0610;-0.0103;0.9946;0.0000;0.0000;0.0000;0.8734;-5.1306;-99.8108;35.3700 
298.860;0.0610;-0.0103;0.9946;0.0000;0.0000;0.0000;0.8679;-5.1251;-99.7998;35.4600 
298.860;0.0610;-0.0103;0.9946;0.0000;0.0000;0.0000;0.8679;-5.1196;-99.7888;35.4600 
298.860;0.0610;-0.0103;0.9946;0.0000;0.0000;0.0000;0.8624;-5.1141;-99.7833;35.4100 
298.880;0.0610;-0.0103;0.9946;0.0000;0.0000;0.0000;0.8569;-5.1086;-99.7723;35.4100 
298.880;0.0610;-0.0103;0.9946;0.0000;0.0000;0.0000;0.8514;-5.1086;-99.7614;35.3700 
298.880;0.0610;-0.0103;0.9946;0.0000;0.0000;0.0000;0.8459;-5.1031;-99.7504;35.3700 
298.880;0.0610;-0.0103;0.9946;0.0000;0.0000;0.0000;0.8459;-5.0977;-99.7394;35.4700 
298.900;0.0610;-0.0103;0.9946;0.0000;0.0000;0.0000;0.8405;-5.0922;-99.7339;35.4700 
298.900;0.0610;-0.0103;0.9946;0.0000;0.0000;0.0000;0.8350;-5.0867;-99.7229;35.4300 
298.900;0.0610;-0.0103;0.9946;0.0000;0.0000;0.0000;0.8295;-5.0812;-99.7119;35.4300 
298.900;0.0610;-0.0103;0.9946;0.0000;0.0000;0.0000;0.8240;-5.0757;-99.7009;35.4200 
299.000;0.0610;-0.0103;0.9946;0.0000;0.0000;0.0000;0.8240;-5.0757;-99.6899;35.4200 
299.000;0.0610;-0.0103;0.9946;0.0000;0.0000;0.0000;0.8185;-5.0702;-99.6844;35.4800 
299.000;0.0605;-0.0103;0.9946;0.0000;0.0000;0.0000;0.8130;-5.0647;-99.6735;35.4800 
299.000;0.0605;-0.0103;0.9946;0.0000;0.0000;0.0000;0.8075;-5.0592;-99.6625;35.4800 
299.010;0.0605;-0.0103;0.9946;0.0000;0.0000;0.0000;0.8020;-5.0537;-99.6515;35.4300 
299.010;0.0605;-0.0103;0.9946;0.0000;0.0000;0.0000;0.8020;-5.0482;-99.6405;35.4300 
299.010;0.0605;-0.0103;0.9946;0.0000;0.0000;0.0000;0.7965;-5.0482;-99.6295;35.3900 
299.010;0.0605;-0.0103;0.9946;0.0000;0.0000;0.0000;0.7910;-5.0427;-99.6185;35.3900 
299.010;0.0605;-0.0103;0.9946;0.0000;0.0000;0.0000;0.7855;-5.0372;-99.6075;35.4100 
299.010;0.0605;-0.0103;0.9946;0.0000;0.0000;0.0000;0.7800;-5.0317;-99.5966;35.4100 
299.010;0.0605;-0.0103;0.9951;0.0000;0.0000;0.0000;0.7800;-5.0262;-99.5856;35.4000 
299.010;0.0605;-0.0103;0.9951;0.0000;0.0000;0.0000;0.7745;-5.0208;-99.5691;35.4000 
299.010;0.0605;-0.0103;0.9951;0.0000;0.0000;0.0000;0.7690;-5.0208;-99.5581;35.4000 
299.010;0.0605;-0.0103;0.9951;0.0000;0.0000;0.0000;0.7635;-5.0153;-99.5471;35.4000 
299.010;0.0605;-0.0103;0.9951;0.0000;0.0000;0.0000;0.7635;-5.0098;-99.5416;35.4100 
299.020;0.0605;-0.0103;0.9951;0.0000;0.0000;0.0000;0.7581;-5.0043;-99.5306;35.4100 
299.020;0.0605;-0.0103;0.9951;0.0000;0.0000;0.0000;0.7526;-4.9988;-99.5197;35.4200 
299.020;0.0605;-0.0103;0.9951;0.0000;0.0000;0.0000;0.7471;-4.9988;-99.5087;35.4200 
299.020;0.0605;-0.0107;0.9956;0.0610;0.0000;0.0000;0.7471;-4.9933;-99.4977;35.4200 
299.040;0.0605;-0.0107;0.9956;0.0610;0.0000;0.0000;0.7416;-4.9878;-99.4867;35.4200 
299.040;0.0605;-0.0107;0.9956;0.0610;0.0000;0.0000;0.7361;-4.9823;-99.4757;35.4200 
299.040;0.0605;-0.0107;0.9956;0.0610;0.0000;0.0000;0.7306;-4.9768;-99.4647;35.4500 
299.040;0.0605;-0.0107;0.9956;0.0610;0.0000;0.0000;0.7306;-4.9768;-99.4537;35.4500 
299.050;0.0605;-0.0107;0.9956;0.0610;0.0000;0.0000;0.7251;-4.9713;-99.4427;35.5200 
299.050;0.0605;-0.0107;0.9956;0.0610;0.0000;0.0000;0.7196;-4.9658;-99.4318;35.5200 
299.050;0.0605;-0.0107;0.9956;0.0610;0.0000;0.0000;0.7196;-4.9603;-99.4208;35.4600 
299.050;0.0601;-0.0107;0.9956;0.0610;0.0000;0.0000;0.7141;-4.9548;-99.4098;35.4600 
299.060;0.0601;-0.0107;0.9956;0.0610;0.0000;0.0000;0.7086;-4.9548;-99.3988;35.4300 
299.060;0.0601;-0.0107;0.9956;0.0610;0.0000;0.0000;0.7086;-4.9493;-99.3878;35.4300 
299.060;0.0601;-0.0107;0.9956;0.0610;0.0000;0.0000;0.7031;-4.9438;-99.3768;35.4900 
299.060;0.0601;-0.0107;0.9956;0.0610;0.0000;0.0000;0.6976;-4.9384;-99.3658;35.4900 
299.070;0.0601;-0.0107;0.9956;0.0610;0.0000;0.0000;0.6921;-4.9329;-99.3549;35.4500 
299.070;0.0601;-0.0107;0.9956;0.0610;0.0000;0.0000;0.6921;-4.9329;-99.3439;35.4500 
299.070;0.0601;-0.0107;0.9956;0.0610;0.0000;0.0000;0.6866;-4.9274;-99.3329;35.4400 
299.070;0.0601;-0.0107;0.9956;0.0610;0.0000;0.0000;0.6812;-4.9219;-99.3219;35.4400 
299.110;0.0601;-0.0107;0.9956;0.0610;0.0000;0.0000;0.6812;-4.9164;-99.3109;35.4500 
299.110;0.0601;-0.0107;0.9956;0.0610;0.0000;0.0000;0.6757;-4.9109;-99.2999;35.4500 
299.110;0.0601;-0.0107;0.9956;0.0610;0.0000;0.0000;0.6702;-4.9109;-99.2944;35.4500 
299.200;0.0601;-0.0107;0.9956;0.0610;0.0000;0.0000;0.6702;-4.9054;-99.2834;35.4400 
299.200;0.0601;-0.0107;0.9956;0.0610;0.0000;0.0000;0.6647;-4.8999;-99.2725;35.4400 
299.200;0.0601;-0.0107;0.9956;0.0610;0.0000;0.0000;0.6592;-4.8944;-99.2670;35.4300 
299.200;0.0601;-0.0107;0.9956;0.0610;0.0000;0.0000;0.6592;-4.8889;-99.2560;35.4300 
299.220;0.0605;-0.0107;0.9956;0.0610;0.0000;0.0000;0.6537;-4.8889;-99.2505;35.4400 
299.220;0.0605;-0.0107;0.9956;0.0610;0.0000;0.0000;0.6482;-4.8834;-99.2395;35.4400 
299.220;0.0605;-0.0107;0.9956;0.0610;0.0000;0.0000;0.6482;-4.8779;-99.2285;35.4800 
299.220;0.0605;-0.0107;0.9956;0.0610;0.0000;0.0000;0.6427;-4.8724;-99.2230;35.4800 
299.220;0.0605;-0.0107;0.9956;0.0610;0.0000;0.0000;0.6372;-4.8724;-99.2120;35.4200 
299.220;0.0605;-0.0107;0.9956;0.0610;0.0000;0.0000;0.6372;-4.8669;-99.2010;35.4200 
299.220;0.0605;-0.0107;0.9956;0.0610;0.0000;0.0000;0.6317;-4.8615;-99.1901;35.4000 
299.220;0.0605;-0.0107;0.9956;0.0610;0.0000;0.0000;0.6262;-4.8560;-99.1846;35.4000 
299.220;0.0605;-0.0107;0.9956;0.0610;0.0000;0.0000;0.6262;-4.8560;-99.1736;35.4200 
299.220;0.0605;-0.0107;0.9956;0.0610;0.0000;0.0000;0.6207;-4.8505;-99.1626;35.4200 
299.220;0.0605;-0.0107;0.9956;0.0610;0.0000;0.0000;0.6207;-4.8450;-99.1571;35.4400 
299.220;0.0605;-0.0107;0.9956;0.0610;0.0000;0.0000;0.6152;-4.8450;-99.1461;35.4400 
299.220;0.0605;-0.0107;0.9956;0.0610;0.0000;0.0000;0.6097;-4.8395;-99.1351;35.4400 
299.220;0.0605;-0.0107;0.9956;0.0610;0.0000;0.0000;0.6097;-4.8340;-99.1296;35.4600 
299.220;0.0605;-0.0107;0.9956;0.0610;0.0000;0.0000;0.6042;-4.8285;-99.1187;35.4600 
299.220;0.0605;-0.0107;0.9956;0.0610;0.0000;0.0000;0.5988;-4.8285;-99.1077;35.3900 
299.240;0.0605;-0.0107;0.9956;0.0610;0.0000;0.0000;0.5988;-4.8230;-99.1022;35.3900 
299.240;0.0605;-0.0107;0.9956;0.0610;0.0000;0.0000;0.5933;-4.8175;-99.0912;35.4100 
299.240;0.0605;-0.0107;0.9956;0.0610;0.0000;0.0000;0.5878;-4.8120;-99.0802;35.4100 
299.240;0.0605;-0.0107;0.9956;0.0610;0.0000;0.0000;0.5878;-4.8120;-99.0747;35.4500 
299.260;0.0605;-0.0107;0.9956;0.0610;0.0000;0.0000;0.5823;-4.8065;-99.0637;35.4500 
299.260;0.0605;-0.0107;0.9956;0.0610;0.0000;0.0000;0.5823;-4.8010;-99.0582;35.4200 
299.260;0.0605;-0.0107;0.9956;0.0610;0.0000;0.0000;0.5768;-4.8010;-99.0472;35.4200 
299.280;0.0605;-0.0107;0.9956;0.0610;0.0000;0.0000;0.5713;-4.7955;-99.0417;35.4100 
299.280;0.0605;-0.0107;0.9961;0.0610;0.0000;0.0000;0.5713;-4.7900;-99.0308;35.4100 
299.280;0.0605;-0.0107;0.9961;0.0610;0.0000;0.0000;0.5658;-4.7900;-99.0198;35.4000 
299.280;0.0605;-0.0107;0.9961;0.0610;0.0000;0.0000;0.5658;-4.7845;-99.0143;35.4000 
299.300;0.0605;-0.0107;0.9961;0.0610;0.0000;0.0000;0.5603;-4.7791;-99.0033;35.3600 
299.300;0.0605;-0.0107;0.9961;0.0610;0.0000;0.0000;0.5548;-4.7736;-98.9978;35.3600 
299.300;0.0605;-0.0107;0.9961;0.0610;0.0000;0.0000;0.5548;-4.7736;-98.9868;35.3600 
299.300;0.0605;-0.0107;0.9961;0.0610;0.0000;0.0000;0.5493;-4.7681;-98.9758;35.4000 
299.310;0.0605;-0.0107;0.9961;0.0610;0.0000;0.0000;0.5493;-4.7626;-98.9703;35.4000 
299.310;0.0601;-0.0107;0.9961;0.0610;0.0000;0.0000;0.5438;-4.7626;-98.9594;35.4800 
299.310;0.0601;-0.0107;0.9961;0.0610;0.0000;0.0000;0.5383;-4.7571;-98.9484;35.4800 
299.310;0.0601;-0.0107;0.9961;0.0610;0.0000;0.0000;0.5383;-4.7516;-98.9429;35.4600 
299.400;0.0601;-0.0107;0.9961;0.0610;0.0000;0.0000;0.5328;-4.7516;-98.9319;35.4600 
299.400;0.0601;-0.0107;0.9961;0.0610;0.0000;0.0000;0.5328;-4.7461;-98.9264;35.5300 
299.400;0.0601;-0.0107;0.9961;0.0610;0.0000;0.0000;0.5273;-4.7406;-98.9154;35.5300 
299.400;0.0601;-0.0107;0.9961;0.0610;0.0000;0.0000;0.5219;-4.7351;-98.9044;35.4500 
299.420;0.0601;-0.0107;0.9961;0.0610;0.0000;0.0000;0.5219;-4.7351;-98.8989;35.4500 
299.420;0.0601;-0.0107;0.9956;0.0610;0.0000;0.0000;0.5164;-4.7296;-98.8879;35.4600 
299.420;0.0601;-0.0107;0.9956;0.0610;0.0000;0.0000;0.5164;-4.7241;-98.8824;35.4600 
299.420;0.0601;-0.0107;0.9956;0.0610;0.0000;0.0000;0.5109;-4.7241;-98.8715;35.4200 
299.420;0.0601;-0.0107;0.9956;0.0610;0.0000;0.0000;0.5054;-4.7186;-98.8660;35.4200 
299.420;0.0601;-0.0107;0.9956;0.0610;0.0000;0.0000;0.5054;-4.7131;-98.8550;35.4200 
299.420;0.0601;-0.0107;0.9956;0.0610;0.0000;0.0000;0.4999;-4.7131;-98.8495;35.4400 
299.420;0.0601;-0.0107;0.9956;0.0610;0.0000;0.0000;0.4999;-4.7076;-98.8385;35.4400 
299.420;0.0601;-0.0107;0.9956;0.0610;0.0000;0.0000;0.4944;-4.7021;-98.8330;35.3600 
299.420;0.0596;-0.0107;0.9951;0.0610;0.0000;0.0000;0.4944;-4.7021;-98.8275;35.3600 
299.420;0.0596;-0.0107;0.9951;0.0610;0.0000;0.0000;0.4889;-4.6967;-98.8165;35.4300 
299.420;0.0596;-0.0107;0.9951;0.0610;0.0000;0.0000;0.4889;-4.6912;-98.8110;35.4300 
299.420;0.0596;-0.0107;0.9951;0.0610;0.0000;0.0000;0.4834;-4.6912;-98.8000;35.4800 
299.420;0.0596;-0.0107;0.9951;0.0610;0.0000;0.0000;0.4779;-4.6857;-98.7891;35.4800 
299.420;0.0596;-0.0107;0.9951;0.0610;0.0000;0.0000;0.4779;-4.6802;-98.7836;35.4100 
299.420;0.0596;-0.0107;0.9951;0.0610;0.0000;0.0000;0.4724;-4.6747;-98.7781;35.4100 
299.420;0.0596;-0.0107;0.9951;0.0610;0.0000;0.0000;0.4724;-4.6747;-98.7671;35.4200 
299.420;0.0596;-0.0107;0.9951;0.0610;0.0000;0.0000;0.4669;-4.6692;-98.7616;35.4200 
299.420;0.0596;-0.0107;0.9951;0.0610;0.0000;0.0000;0.4669;-4.6637;-98.7506;35.4800 
299.440;0.0596;-0.0107;0.9951;0.0610;0.0000;0.0000;0.4614;-4.6637;-98.7451;35.4800 
299.440;0.0596;-0.0107;0.9951;0.0610;0.0000;0.0000;0.4614;-4.6582;-98.7396;35.4100 
299.440;0.0596;-0.0107;0.9951;0.0610;0.0000;0.0000;0.4559;-4.6527;-98.7286;35.4100 
299.440;0.0596;-0.0107;0.9951;0.0610;0.0000;0.0000;0.4504;-4.6527;-98.7231;35.4100 
299.440;0.0596;-0.0107;0.9951;0.0610;0.0000;0.0000;0.4504;-4.6472;-98.7177;35.4100 
299.440;0.0596;-0.0107;0.9951;0.0610;0.0000;0.0000;0.4449;-4.6417;-98.7122;35.4100 
299.440;0.0591;-0.0107;0.9946;0.0610;0.0000;0.0000;0.4449;-4.6417;-98.7067;35.4000 
299.440;0.0591;-0.0107;0.9946;0.0610;0.0000;0.0000;0.4395;-4.6362;-98.6957;35.4000 
299.469;0.0591;-0.0107;0.9946;0.0610;0.0000;0.0000;0.4395;-4.6307;-98.6902;35.4200 
299.469;0.0591;-0.0107;0.9946;0.0610;0.0000;0.0000;0.4340;-4.6307;-98.6847;35.4200 
299.469;0.0591;-0.0107;0.9946;0.0610;0.0000;0.0000;0.4340;-4.6252;-98.6792;35.4000 
299.469;0.0591;-0.0107;0.9946;0.0610;0.0000;0.0000;0.4285;-4.6198;-98.6737;35.4000 
299.479;0.0591;-0.0107;0.9946;0.0610;0.0000;0.0000;0.4285;-4.6198;-98.6682;35.3500 
299.479;0.0591;-0.0107;0.9946;0.0610;0.0000;0.0000;0.4230;-4.6143;-98.6572;35.3500 
299.479;0.0596;-0.0107;0.9951;0.0610;0.0000;0.0000;0.4230;-4.6088;-98.6517;35.4500 
299.490;0.0596;-0.0107;0.9951;0.0610;0.0000;0.0000;0.4175;-4.6088;-98.6462;35.4500 
299.490;0.0596;-0.0107;0.9951;0.0610;0.0000;0.0000;0.4175;-4.6033;-98.6407;35.4200 
299.490;0.0596;-0.0107;0.9951;0.0610;0.0000;0.0000;0.4120;-4.6033;-98.6298;35.4200 
299.490;0.0596;-0.0107;0.9951;0.0610;0.0000;0.0000;0.4065;-4.5978;-98.6243;35.3600 
299.499;0.0596;-0.0107;0.9951;0.0610;0.0000;0.0000;0.4065;-4.5923;-98.6188;35.3600 
299.499;0.0596;-0.0107;0.9951;0.0610;0.0000;0.0000;0.4010;-4.5923;-98.6078;35.3600 
299.499;0.0596;-0.0107;0.9951;0.0610;0.0000;0.0000;0.4010;-4.5868;-98.6023;35.4400 
299.499;0.0596;-0.0103;0.9956;0.0610;0.0000;0.0000;0.3955;-4.5813;-98.5913;35.4400 
299.499;0.0596;-0.0103;0.9956;0.0610;0.0000;0.0000;0.3955;-4.5813;-98.5858;35.4100 
299.499;0.0596;-0.0103;0.9956;0.0610;0.0000;0.0000;0.3900;-4.5758;-98.5748;35.4100 
299.499;0.0596;-0.0103;0.9956;0.0610;0.0000;0.0000;0.3900;-4.5758;-98.5693;35.3900 
299.499;0.0596;-0.0103;0.9956;0.0610;0.0000;0.0000;0.3845;-4.5703;-98.5583;35.3900 
299.609;0.0596;-0.0103;0.9956;0.0610;0.0000;0.0000;0.3845;-4.5648;-98.5529;35.4400 
299.609;0.0596;-0.0103;0.9956;0.0610;0.0000;0.0000;0.3790;-4.5648;-98.5474;35.4400 
299.609;0.0596;-0.0103;0.9956;0.0610;0.0000;0.0000;0.3790;-4.5593;-98.5364;35.4400 
299.609;0.0596;-0.0103;0.9961;0.0610;0.0000;0.0000;0.3735;-4.5538;-98.5309;35.4400 
299.629;0.0596;-0.0103;0.9961;0.0610;0.0000;0.0000;0.3735;-4.5538;-98.5254;35.3700 
299.629;0.0596;-0.0103;0.9961;0.0610;0.0000;0.0000;0.3735;-4.5483;-98.5199;35.3700 
299.629;0.0596;-0.0103;0.9961;0.0610;0.0000;0.0000;0.3680;-4.5483;-98.5089;35.3800 
299.629;0.0596;-0.0103;0.9961;0.0610;0.0000;0.0000;0.3680;-4.5428;-98.5034;35.3800 
299.629;0.0596;-0.0103;0.9961;0.0610;0.0000;0.0000;0.3625;-4.5374;-98.4979;35.4700 
299.629;0.0596;-0.0103;0.9961;0.0610;0.0000;0.0000;0.3625;-4.5374;-98.4869;35.4700 
299.629;0.0596;-0.0103;0.9961;0.0610;0.0000;0.0000;0.3571;-4.5319;-98.4814;35.4700 
299.629;0.0596;-0.0103;0.9961;0.0610;0.0000;0.0000;0.3571;-4.5319;-98.4760;35.4100 
299.629;0.0596;-0.0103;0.9961;0.0610;0.0000;0.0000;0.3516;-4.5264;-98.4650;35.4100 
299.629;0.0596;-0.0103;0.9961;0.0610;0.0000;0.0000;0.3516;-4.5209;-98.4595;35.4300 
299.629;0.0596;-0.0103;0.9961;0.0610;0.0000;0.0000;0.3461;-4.5209;-98.4540;35.4300 
299.629;0.0596;-0.0103;0.9961;0.0610;0.0000;0.0000;0.3461;-4.5154;-98.4430;35.4000 
299.629;0.0596;-0.0103;0.9961;0.0610;0.0000;0.0000;0.3406;-4.5154;-98.4375;35.4000 
299.629;0.0596;-0.0103;0.9961;0.0610;0.0000;0.0000;0.3406;-4.5099;-98.4320;35.4200 
299.629;0.0596;-0.0103;0.9961;0.0610;0.0000;0.0000;0.3351;-4.5044;-98.4210;35.4200 
299.629;0.0601;-0.0103;0.9961;0.0610;0.0000;0.0000;0.3351;-4.5044;-98.4155;35.4200 
299.629;0.0601;-0.0103;0.9961;0.0610;0.0000;0.0000;0.3296;-4.4989;-98.4100;35.4200 
299.629;0.0601;-0.0103;0.9961;0.0610;0.0000;0.0000;0.3296;-4.4989;-98.3990;35.3900 
299.629;0.0601;-0.0103;0.9961;0.0610;0.0000;0.0000;0.3296;-4.4934;-98.3936;35.3900 
299.629;0.0601;-0.0103;0.9961;0.0610;0.0000;0.0000;0.3241;-4.4934;-98.3826;35.4200 
299.629;0.0601;-0.0103;0.9961;0.0610;0.0000;0.0000;0.3241;-4.4879;-98.3771;35.4200 
299.629;0.0601;-0.0103;0.9961;0.0610;0.0000;0.0000;0.3186;-4.4824;-98.3716;35.4200 
299.629;0.0601;-0.0103;0.9961;0.0610;0.0000;0.0000;0.3186;-4.4824;-98.3606;35.4500 
299.629;0.0601;-0.0103;0.9956;0.0000;0.0000;0.0000;0.3131;-4.4769;-98.3551;35.4500 
299.629;0.0601;-0.0103;0.9956;0.0000;0.0000;0.0000;0.3131;-4.4769;-98.3496;35.3800 
299.629;0.0601;-0.0103;0.9956;0.0000;0.0000;0.0000;0.3076;-4.4714;-98.3441;35.3800 
299.629;0.0601;-0.0103;0.9956;0.0000;0.0000;0.0000;0.3076;-4.4714;-98.3386;35.3700 
299.629;0.0601;-0.0103;0.9956;0.0000;0.0000;0.0000;0.3021;-4.4659;-98.3276;35.3700 
299.629;0.0601;-0.0103;0.9956;0.0000;0.0000;0.0000;0.3021;-4.4659;-98.3221;35.3700 
299.629;0.0601;-0.0103;0.9956;0.0000;0.0000;0.0000;0.2966;-4.4604;-98.3167;35.3700 
299.649;0.0601;-0.0103;0.9956;0.0000;0.0000;0.0000;0.2966;-4.4604;-98.3057;35.4300 
299.649;0.0601;-0.0103;0.9951;0.0000;0.0000;0.0000;0.2911;-4.4550;-98.3002;35.4300 
299.649;0.0601;-0.0103;0.9951;0.0000;0.0000;0.0000;0.2911;-4.4495;-98.2947;35.3700 
299.649;0.0601;-0.0103;0.9951;0.0000;0.0000;0.0000;0.2856;-4.4495;-98.2892;35.3700 
299.649;0.0601;-0.0103;0.9951;0.0000;0.0000;0.0000;0.2856;-4.4440;-98.2782;35.4300 
299.649;0.0601;-0.0103;0.9951;0.0000;0.0000;0.0000;0.2802;-4.4440;-98.2727;35.4300 
299.649;0.0601;-0.0103;0.9951;0.0000;0.0000;0.0000;0.2802;-4.4385;-98.2672;35.4100 
299.649;0.0601;-0.0103;0.9951;0.0000;0.0000;0.0000;0.2747;-4.4385;-98.2617;35.4100 
299.649;0.0601;-0.0103;0.9951;0.0000;0.0000;0.0000;0.2747;-4.4330;-98.2562;35.4100 
299.649;0.0605;-0.0103;0.9951;0.0000;0.0000;0.0000;0.2692;-4.4330;-98.2507;35.4500 
299.649;0.0605;-0.0103;0.9951;0.0000;0.0000;0.0000;0.2692;-4.4275;-98.2452;35.4500 
299.649;0.0605;-0.0103;0.9951;0.0000;0.0000;0.0000;0.2637;-4.4275;-98.2343;35.4600 
299.659;0.0605;-0.0103;0.9951;0.0000;0.0000;0.0000;0.2637;-4.4220;-98.2288;35.4600 
299.659;0.0605;-0.0103;0.9951;0.0000;0.0000;0.0000;0.2582;-4.4220;-98.2233;35.4200 
299.659;0.0605;-0.0103;0.9951;0.0000;0.0000;0.0000;0.2582;-4.4165;-98.2178;35.4200 
299.659;0.0605;-0.0103;0.9951;0.0000;0.0000;0.0000;0.2527;-4.4165;-98.2068;35.4500 
299.679;0.0605;-0.0103;0.9951;0.0000;0.0000;0.0000;0.2527;-4.4110;-98.2013;35.4500 
299.679;0.0605;-0.0103;0.9946;0.0000;0.0000;0.0000;0.2527;-4.4110;-98.1958;35.3700 
299.679;0.0605;-0.0103;0.9946;0.0000;0.0000;0.0000;0.2472;-4.4055;-98.1848;35.3700 
299.679;0.0605;-0.0103;0.9946;0.0000;0.0000;0.0000;0.2472;-4.4055;-98.1793;35.3500 
299.699;0.0605;-0.0103;0.9946;0.0000;0.0000;0.0000;0.2417;-4.4000;-98.1738;35.3500 
299.699;0.0605;-0.0103;0.9946;0.0000;0.0000;0.0000;0.2417;-4.4000;-98.1683;35.3800 
299.699;0.0605;-0.0103;0.9946;0.0000;0.0000;0.0000;0.2362;-4.3945;-98.1628;35.3800 
299.699;0.0605;-0.0103;0.9946;0.0000;0.0000;0.0000;0.2362;-4.3945;-98.1573;35.4000 
299.719;0.0605;-0.0103;0.9946;0.0000;0.0000;0.0000;0.2307;-4.3890;-98.1464;35.4000 
299.719;0.0605;-0.0103;0.9946;0.0000;0.0000;0.0000;0.2307;-4.3890;-98.1409;35.4000 
299.719;0.0605;-0.0103;0.9946;0.0000;0.0000;0.0000;0.2252;-4.3835;-98.1354;35.4100 
299.719;0.0605;-0.0103;0.9946;0.0000;0.0000;0.0000;0.2252;-4.3835;-98.1299;35.4100 
299.829;0.0605;-0.0103;0.9946;0.0000;0.0000;0.0000;0.2197;-4.3781;-98.1244;35.4200 
299.829;0.0605;-0.0103;0.9946;0.0000;0.0000;0.0000;0.2197;-4.3781;-98.1189;35.4200 
299.829;0.0605;-0.0103;0.9946;0.0000;0.0000;0.0000;0.2197;-4.3726;-98.1134;35.4200 
299.849;0.0605;-0.0103;0.9946;0.0000;0.0000;0.0000;0.2142;-4.3726;-98.1024;35.4200 
299.849;0.0605;-0.0103;0.9946;0.0000;0.0000;0.0000;0.2142;-4.3671;-98.0969;35.4200 
299.849;0.0605;-0.0103;0.9941;0.0000;0.0000;0.0000;0.2087;-4.3671;-98.0914;35.4200 
299.849;0.0605;-0.0103;0.9941;0.0000;0.0000;0.0000;0.2087;-4.3616;-98.0859;35.3400 
299.849;0.0605;-0.0103;0.9941;0.0000;0.0000;0.0000;0.2032;-4.3616;-98.0804;35.3400 
299.849;0.0605;-0.0103;0.9941;0.0000;0.0000;0.0000;0.2032;-4.3561;-98.0750;35.4600 
299.849;0.0605;-0.0103;0.9941;0.0000;0.0000;0.0000;0.1978;-4.3561;-98.0640;35.4600 
299.849;0.0605;-0.0103;0.9941;0.0000;0.0000;0.0000;0.1978;-4.3506;-98.0585;35.4300 
299.849;0.0605;-0.0103;0.9941;0.0000;0.0000;0.0000;0.1978;-4.3506;-98.0530;35.4300 
299.849;0.0605;-0.0103;0.9941;0.0000;0.0000;0.0000;0.1923;-4.3451;-98.0475;35.4300 
299.849;0.0605;-0.0103;0.9941;0.0000;0.0000;0.0000;0.1923;-4.3451;-98.0420;35.4300 
299.849;0.0605;-0.0103;0.9941;0.0000;0.0000;0.0000;0.1868;-4.3451;-98.0365;35.4300 
299.849;0.0605;-0.0103;0.9941;0.0000;0.0000;0.0000;0.1868;-4.3396;-98.0310;35.3900 
299.849;0.0605;-0.0103;0.9941;0.0000;0.0000;0.0000;0.1813;-4.3396;-98.0255;35.3900 
299.849;0.0605;-0.0103;0.9941;0.0000;0.0000;0.0000;0.1813;-4.3341;-98.0200;35.4100 
299.849;0.0605;-0.0103;0.9941;0.0000;0.0000;0.0000;0.1813;-4.3341;-98.0145;35.4100 
299.849;0.0605;-0.0103;0.9941;0.0000;0.0000;0.0000;0.1758;-4.3286;-98.0090;35.4700 
299.849;0.0605;-0.0103;0.9941;0.0000;0.0000;0.0000;0.1758;-4.3286;-98.0035;35.4700 
299.849;0.0601;-0.0103;0.9941;0.0610;0.0000;0.0000;0.1703;-4.3231;-97.9980;35.3900 
299.849;0.0601;-0.0103;0.9941;0.0610;0.0000;0.0000;0.1703;-4.3231;-97.9871;35.3900 
299.849;0.0601;-0.0103;0.9941;0.0610;0.0000;0.0000;0.1703;-4.3176;-97.9816;35.4800 
299.849;0.0601;-0.0103;0.9941;0.0610;0.0000;0.0000;0.1648;-4.3176;-97.9761;35.4800 
299.849;0.0601;-0.0103;0.9941;0.0610;0.0000;0.0000;0.1648;-4.3121;-97.9706;35.4100 
299.849;0.0601;-0.0103;0.9941;0.0610;0.0000;0.0000;0.1593;-4.3121;-97.9596;35.4100 
299.849;0.0601;-0.0103;0.9941;0.0610;0.0000;0.0000;0.1593;-4.3066;-97.9541;35.4300 
299.849;0.0601;-0.0103;0.9941;0.0610;0.0000;0.0000;0.1593;-4.3066;-97.9486;35.4300 
299.849;0.0601;-0.0103;0.9946;0.0610;0.0000;0.0000;0.1538;-4.3066;-97.9376;35.3900 
299.869;0.0601;-0.0103;0.9946;0.0610;0.0000;0.0000;0.1538;-4.3011;-97.9321;35.3900 
299.869;0.0601;-0.0103;0.9946;0.0610;0.0000;0.0000;0.1538;-4.3011;-97.9266;35.3900 
299.869;0.0601;-0.0103;0.9946;0.0610;0.0000;0.0000;0.1483;-4.2957;-97.9156;35.4100 
299.869;0.0601;-0.0103;0.9946;0.0610;0.0000;0.0000;0.1483;-4.2957;-97.9102;35.4100 
299.889;0.0601;-0.0103;0.9946;0.0610;0.0000;0.0000;0.1483;-4.2902;-97.9047;35.4300 
299.889;0.0601;-0.0103;0.9946;0.0610;0.0000;0.0000;0.1428;-4.2902;-97.8992;35.4300 
299.889;0.0601;-0.0103;0.9946;0.0610;0.0000;0.0000;0.1428;-4.2847;-97.8937;35.4800 
299.889;0.0596;-0.0098;0.9946;0.0610;0.0000;0.0000;0.1428;-4.2847;-97.8882;35.4800 
299.899;0.0596;-0.0098;0.9946;0.0610;0.0000;0.0000;0.1373;-4.2792;-97.8827;35.4900 
299.899;0.0596;-0.0098;0.9946;0.0610;0.0000;0.0000;0.1373;-4.2792;-97.8772;35.4900 
299.899;0.0596;-0.0098;0.9946;0.0610;0.0000;0.0000;0.1373;-4.2737;-97.8717;35.4500 
299.899;0.0596;-0.0098;0.9946;0.0610;0.0000;0.0000;0.1318;-4.2737;-97.8662;35.4500 
299.909;0.0596;-0.0098;0.9946;0.0610;0.0000;0.0000;0.1318;-4.2737;-97.8607;35.3600 
299.909;0.0596;-0.0098;0.9946;0.0610;0.0000;0.0000;0.1318;-4.2682;-97.8607;35.3600 
299.909;0.0596;-0.0103;0.9946;0.0610;0.0000;0.0000;0.1263;-4.2682;-97.8552;35.4000 
299.909;0.0596;-0.0103;0.9946;0.0610;0.0000;0.0000;0.1263;-4.2627;-97.8497;35.4000 
299.909;0.0596;-0.0103;0.9946;0.0610;0.0000;0.0000;0.1263;-4.2627;-97.8442;35.4000 
299.909;0.0596;-0.0103;0.9946;0.0610;0.0000;0.0000;0.1208;-4.2572;-97.8442;35.4000 
299.909;0.0596;-0.0103;0.9946;0.0610;0.0000;0.0000;0.1208;-4.2572;-97.8387;35.4000 
299.909;0.0596;-0.0103;0.9946;0.0610;0.0000;0.0000;0.1208;-4.2517;-97.8333;35.3700 
300.039;0.0596;-0.0103;0.9946;0.0610;0.0000;0.0000;0.1154;-4.2517;-97.8278;35.3700 
300.039;0.0596;-0.0103;0.9946;0.0610;0.0000;0.0000;0.1154;-4.2462;-97.8223;35.4300 
300.039;0.0601;-0.0103;0.9951;0.0610;0.0000;0.0000;0.1099;-4.2462;-97.8113;35.4300 
300.059;0.0601;-0.0103;0.9951;0.0610;0.0000;0.0000;0.1099;-4.2462;-97.8058;35.4100 
300.059;0.0601;-0.0103;0.9951;0.0610;0.0000;0.0000;0.1099;-4.2407;-97.8003;35.4100 
300.059;0.0601;-0.0103;0.9951;0.0610;0.0000;0.0000;0.1044;-4.2407;-97.7948;35.4300 
300.059;0.0601;-0.0103;0.9951;0.0610;0.0000;0.0000;0.1044;-4.2352;-97.7893;35.4300 
300.069;0.0601;-0.0103;0.9951;0.0610;0.0000;0.0000;0.1044;-4.2352;-97.7838;35.3900 
300.069;0.0601;-0.0103;0.9951;0.0610;0.0000;0.0000;0.1044;-4.2297;-97.7728;35.3900 
300.069;0.0601;-0.0103;0.9951;0.0610;0.0000;0.0000;0.0989;-4.2297;-97.7673;35.4400 
300.069;0.0601;-0.0103;0.9951;0.0610;0.0000;0.0000;0.0989;-4.2297;-97.7618;35.4400 
300.089;0.0601;-0.0103;0.9951;0.0610;0.0000;0.0000;0.0989;-4.2242;-97.7563;35.4300 
300.089;0.0601;-0.0103;0.9951;0.0610;0.0000;0.0000;0.0934;-4.2242;-97.7509;35.4300 
300.089;0.0601;-0.0103;0.9951;0.0610;0.0000;0.0000;0.0934;-4.2188;-97.7454;35.4300 
300.089;0.0601;-0.0103;0.9951;0.0610;0.0000;0.0000;0.0934;-4.2188;-97.7399;35.4500 
300.099;0.0601;-0.0103;0.9951;0.0610;0.0000;0.0000;0.0879;-4.2188;-97.7344;35.4500 
300.099;0.0601;-0.0103;0.9951;0.0610;0.0000;0.0000;0.0879;-4.2133;-97.7289;35.3700 
300.099;0.0601;-0.0103;0.9951;0.0610;0.0000;0.0000;0.0879;-4.2133;-97.7234;35.3700 
300.099;0.0601;-0.0103;0.9951;0.0610;0.0000;0.0000;0.0824;-4.2078;-97.7179;35.4600 
300.119;0.0601;-0.0103;0.9951;0.0610;0.0000;0.0000;0.0824;-4.2078;-97.7124;35.4600 
300.119;0.0601;-0.0103;0.9951;0.0610;0.0000;0.0000;0.0824;-4.2023;-97.7069;35.4900 
300.119;0.0601;-0.0103;0.9951;0.0610;0.0000;0.0000;0.0769;-4.2023;-97.6959;35.4900 
300.119;0.0601;-0.0103;0.9951;0.0610;0.0000;0.0000;0.0769;-4.2023;-97.6904;35.4300 
300.139;0.0601;-0.0103;0.9951;0.0610;0.0000;0.0000;0.0769;-4.1968;-97.6849;35.4300 
300.139;0.0601;-0.0103;0.9951;0.0610;0.0000;0.0000;0.0714;-4.1968;-97.6740;35.4500 
300.139;0.0601;-0.0103;0.9951;0.0610;0.0000;0.0000;0.0714;-4.1913;-97.6685;35.4500 
300.239;0.0601;-0.0107;0.9956;0.0610;0.0000;0.0000;0.0714;-4.1913;-97.6630;35.3900 
300.239;0.0601;-0.0107;0.9956;0.0610;0.0000;0.0000;0.0659;-4.1913;-97.6575;35.3900 
300.239;0.0601;-0.0107;0.9956;0.0610;0.0000;0.0000;0.0659;-4.1858;-97.6465;35.4300 
300.239;0.0601;-0.0107;0.9956;0.0610;0.0000;0.0000;0.0659;-4.1858;-97.6410;35.4300 
300.259;0.0601;-0.0107;0.9956;0.0610;0.0000;0.0000;0.0604;-4.1803;-97.6355;35.4300 
300.259;0.0601;-0.0107;0.9956;0.0610;0.0000;0.0000;0.0604;-4.1803;-97.6245;35.3900 
300.259;0.0601;-0.0107;0.9956;0.0610;0.0000;0.0000;0.0604;-4.1803;-97.6190;35.3900 
300.259;0.0601;-0.0107;0.9956;0.0610;0.0000;0.0000;0.0549;-4.1748;-97.6135;35.3900 
300.259;0.0601;-0.0107;0.9956;0.0610;0.0000;0.0000;0.0549;-4.1748;-97.6080;35.3900 
300.259;0.0601;-0.0107;0.9956;0.0610;0.0000;0.0000;0.0549;-4.1693;-97.6025;35.4000 
300.259;0.0601;-0.0107;0.9956;0.0610;0.0000;0.0000;0.0494;-4.1693;-97.5970;35.4000 
300.259;0.0601;-0.0107;0.9956;0.0610;0.0000;0.0000;0.0494;-4.1693;-97.5861;35.4100 
300.259;0.0601;-0.0107;0.9956;0.0610;0.0000;0.0000;0.0494;-4.1638;-97.5806;35.4100 
300.259;0.0601;-0.0107;0.9956;0.0610;0.0000;0.0000;0.0494;-4.1638;-97.5751;35.3900 
300.259;0.0601;-0.0107;0.9956;0.0610;0.0000;0.0000;0.0439;-4.1638;-97.5696;35.3900 
300.259;0.0601;-0.0107;0.9956;0.0610;0.0000;0.0000;0.0439;-4.1583;-97.5641;35.3800 
300.259;0.0601;-0.0107;0.9956;0.0610;0.0000;0.0000;0.0439;-4.1583;-97.5531;35.3800 
300.259;0.0601;-0.0107;0.9956;0.0610;0.0000;0.0000;0.0385;-4.1528;-97.5476;35.4300 
300.259;0.0601;-0.0107;0.9956;0.0610;0.0000;0.0000;0.0385;-4.1528;-97.5421;35.4300 
300.259;0.0601;-0.0107;0.9956;0.0610;0.0000;0.0000;0.0385;-4.1528;-97.5311;35.4400 
300.269;0.0601;-0.0107;0.9956;0.0610;0.0000;0.0000;0.0330;-4.1473;-97.5256;35.4400 
300.269;0.0601;-0.0107;0.9956;0.0610;0.0000;0.0000;0.0330;-4.1473;-97.5201;35.4400 
300.269;0.0601;-0.0107;0.9956;0.0610;0.0000;0.0000;0.0330;-4.1418;-97.5092;35.3800 
300.269;0.0601;-0.0107;0.9956;0.0610;0.0000;0.0000;0.0275;-4.1418;-97.5037;35.3800 
300.299;0.0601;-0.0103;0.9956;0.0000;0.0000;0.0000;0.0275;-4.1418;-97.4927;35.3500 
300.299;0.0601;-0.0103;0.9956;0.0000;0.0000;0.0000;0.0275;-4.1364;-97.4872;35.3500 
300.299;0.0601;-0.0103;0.9956;0.0000;0.0000;0.0000;0.0220;-4.1364;-97.4817;35.4500 
300.319;0.0601;-0.0103;0.9956;0.0000;0.0000;0.0000;0.0220;-4.1364;-97.4762;35.4500 
300.319;0.0601;-0.0103;0.9956;0.0000;0.0000;0.0000;0.0220;-4.1309;-97.4652;35.4400 
300.319;0.0601;-0.0103;0.9956;0.0000;0.0000;0.0000;0.0165;-4.1309;-97.4597;35.4400 
300.319;0.0601;-0.0103;0.9956;0.0000;0.0000;0.0000;0.0165;-4.1309;-97.4542;35.5100 
300.339;0.0601;-0.0103;0.9956;0.0000;0.0000;0.0000;0.0165;-4.1254;-97.4487;35.5100 
300.339;0.0601;-0.0103;0.9956;0.0610;0.0000;0.0000;0.0110;-4.1254;-97.4432;35.4700 
300.339;0.0601;-0.0103;0.9956;0.0610;0.0000;0.0000;0.0110;-4.1199;-97.4377;35.4700 
300.339;0.0601;-0.0103;0.9956;0.0610;0.0000;0.0000;0.0110;-4.1199;-97.4323;35.4000 
300.349;0.0601;-0.0103;0.9956;0.0610;0.0000;0.0000;0.0110;-4.1199;-97.4323;35.4000 
300.349;0.0601;-0.0103;0.9956;0.0610;0.0000;0.0000;0.0055;-4.1144;-97.4268;35.4000 
300.349;0.0601;-0.0103;0.9956;0.0610;0.0000;0.0000;0.0055;-4.1144;-97.4213;35.4300 
300.349;0.0601;-0.0103;0.9956;0.0610;0.0000;0.0000;0.0055;-4.1144;-97.4158;35.4300 
300.439;0.0601;-0.0103;0.9956;0.0610;0.0000;0.0000;0.0000;-4.1089;-97.4103;35.5100 
300.439;0.0601;-0.0103;0.9961;0.0610;0.0000;0.0000;0.0000;-4.1089;-97.4048;35.5100 
300.439;0.0601;-0.0103;0.9961;0.0610;0.0000;0.0000;0.0000;-4.1089;-97.3993;35.4900 
300.439;0.0601;-0.0103;0.9961;0.0610;0.0000;0.0000;0.0000;-4.1034;-97.3938;35.4900 
300.459;0.0601;-0.0103;0.9961;0.0610;0.0000;0.0000;0.0000;-4.1034;-97.3883;35.4400 
300.459;0.0601;-0.0103;0.9961;0.0610;0.0000;0.0000;0.0000;-4.0979;-97.3828;35.4400 
300.459;0.0601;-0.0103;0.9961;0.0610;0.0000;0.0000;0.0000;-4.0979;-97.3773;35.3900 
300.459;0.0601;-0.0103;0.9961;0.0610;0.0000;0.0000;0.0000;-4.0979;-97.3718;35.3900 
300.459;0.0601;-0.0103;0.9961;0.0610;0.0000;0.0000;-0.0055;-4.0924;-97.3663;35.4100 
300.459;0.0601;-0.0103;0.9956;0.0610;0.0000;0.0000;-0.0055;-4.0924;-97.3608;35.4100 
300.459;0.0601;-0.0103;0.9956;0.0610;0.0000;0.0000;-0.0055;-4.0924;-97.3553;35.4700 
300.459;0.0601;-0.0103;0.9956;0.0610;0.0000;0.0000;-0.0055;-4.0869;-97.3499;35.4700 
300.459;0.0601;-0.0103;0.9956;0.0610;0.0000;0.0000;-0.0110;-4.0869;-97.3444;35.4700 
300.459;0.0601;-0.0103;0.9956;0.0610;0.0000;0.0000;-0.0110;-4.0869;-97.3389;35.4700 
300.459;0.0601;-0.0103;0.9956;0.0610;0.0000;0.0000;-0.0110;-4.0814;-97.3279;35.4700 
300.479;0.0601;-0.0103;0.9956;0.0610;0.0000;0.0000;-0.0165;-4.0814;-97.3224;35.4300 
300.479;0.0601;-0.0103;0.9956;0.0610;0.0000;0.0000;-0.0165;-4.0814;-97.3224;35.4300 
300.479;0.0601;-0.0103;0.9956;0.0610;0.0000;0.0000;-0.0165;-4.0759;-97.3169;35.4000 
300.479;0.0601;-0.0103;0.9956;0.0610;0.0000;0.0000;-0.0165;-4.0759;-97.3114;35.4000 
300.479;0.0601;-0.0103;0.9956;0.0610;0.0000;0.0000;-0.0220;-4.0759;-97.3059;35.4400 
300.479;0.0601;-0.0103;0.9956;0.0610;0.0000;0.0000;-0.0220;-4.0704;-97.3059;35.4400 
300.479;0.0601;-0.0103;0.9956;0.0610;0.0000;0.0000;-0.0220;-4.0704;-97.3004;35.4000 
300.479;0.0601;-0.0103;0.9956;0.0610;0.0000;0.0000;-0.0220;-4.0704;-97.2949;35.4000 
300.489;0.0601;-0.0103;0.9956;0.0610;0.0000;0.0000;-0.0275;-4.0649;-97.2949;35.3700 
300.489;0.0601;-0.0103;0.9956;0.0610;0.0000;0.0000;-0.0275;-4.0649;-97.2894;35.3700 
300.489;0.0596;-0.0103;0.9956;0.0610;0.0000;0.0000;-0.0275;-4.0649;-97.2894;35.4000 
300.489;0.0596;-0.0103;0.9956;0.0610;0.0000;0.0000;-0.0275;-4.0594;-97.2894;35.4000 
300.489;0.0596;-0.0103;0.9956;0.0610;0.0000;0.0000;-0.0330;-4.0594;-97.2839;35.4200 
300.489;0.0596;-0.0103;0.9956;0.0610;0.0000;0.0000;-0.0330;-4.0540;-97.2839;35.4200 
300.489;0.0596;-0.0103;0.9956;0.0610;0.0000;0.0000;-0.0330;-4.0540;-97.2784;35.4300 
300.489;0.0596;-0.0103;0.9956;0.0610;0.0000;0.0000;-0.0330;-4.0540;-97.2784;35.4300 
300.519;0.0596;-0.0103;0.9956;0.0610;0.0000;0.0000;-0.0385;-4.0485;-97.2729;35.4300 
300.519;0.0596;-0.0103;0.9956;0.0610;0.0000;0.0000;-0.0385;-4.0485;-97.2729;35.4800 
300.519;0.0596;-0.0103;0.9951;0.0610;0.0000;0.0000;-0.0385;-4.0485;-97.2675;35.4800 
300.519;0.0596;-0.0103;0.9951;0.0610;0.0000;0.0000;-0.0385;-4.0430;-97.2675;35.3700 
300.539;0.0596;-0.0103;0.9951;0.0610;0.0000;0.0000;-0.0439;-4.0430;-97.2620;35.3700 
300.539;0.0596;-0.0103;0.9951;0.0610;0.0000;0.0000;-0.0439;-4.0430;-97.2565;35.4200 
300.539;0.0596;-0.0103;0.9951;0.0610;0.0000;0.0000;-0.0439;-4.0375;-97.2565;35.4200 
300.639;0.0596;-0.0103;0.9951;0.0610;0.0000;0.0000;-0.0439;-4.0375;-97.2510;35.4100 
300.639;0.0596;-0.0103;0.9951;0.0610;0.0000;0.0000;-0.0494;-4.0375;-97.2455;35.4100 
300.639;0.0596;-0.0103;0.9951;0.0610;0.0000;0.0000;-0.0494;-4.0320;-97.2455;35.4900 
300.639;0.0596;-0.0103;0.9951;0.0610;0.0000;0.0000;-0.0494;-4.0320;-97.2400;35.4900 
300.639;0.0596;-0.0103;0.9951;0.0610;0.0000;0.0000;-0.0494;-4.0320;-97.2400;35.4900 
300.639;0.0596;-0.0103;0.9951;0.0610;0.0000;0.0000;-0.0494;-4.0265;-97.2345;35.4900 
300.639;0.0596;-0.0103;0.9951;0.0610;0.0000;0.0000;-0.0549;-4.0265;-97.2290;35.4800 
300.639;0.0596;-0.0103;0.9951;0.0610;0.0000;0.0000;-0.0549;-4.0265;-97.2235;35.4800 
300.659;0.0596;-0.0103;0.9951;0.0610;0.0000;0.0000;-0.0549;-4.0210;-97.2180;35.4000 
300.659;0.0596;-0.0103;0.9951;0.0610;0.0000;0.0000;-0.0549;-4.0210;-97.2125;35.4000 
300.659;0.0596;-0.0103;0.9951;0.0610;0.0000;0.0000;-0.0604;-4.0210;-97.2125;35.4000 
300.659;0.0596;-0.0103;0.9951;0.0000;0.0000;0.0000;-0.0604;-4.0155;-97.2070;35.4400 
300.659;0.0596;-0.0103;0.9951;0.0000;0.0000;0.0000;-0.0604;-4.0155;-97.2015;35.4400 
300.659;0.0596;-0.0103;0.9951;0.0000;0.0000;0.0000;-0.0659;-4.0155;-97.1960;35.4200 
300.659;0.0596;-0.0103;0.9951;0.0000;0.0000;0.0000;-0.0659;-4.0100;-97.1906;35.4200 
300.659;0.0596;-0.0103;0.9951;0.0000;0.0000;0.0000;-0.0659;-4.0100;-97.1906;35.3700 
300.659;0.0596;-0.0103;0.9951;0.0000;0.0000;0.0000;-0.0659;-4.0100;-97.1851;35.3700 
300.659;0.0596;-0.0103;0.9951;0.0000;0.0000;0.0000;-0.0714;-4.0045;-97.1796;35.4500 
300.659;0.0596;-0.0103;0.9951;0.0000;0.0000;0.0000;-0.0714;-4.0045;-97.1796;35.4500 
300.659;0.0601;-0.0103;0.9951;0.0000;0.0000;0.0000;-0.0714;-4.0045;-97.1741;35.4000 
300.659;0.0601;-0.0103;0.9951;0.0000;0.0000;0.0000;-0.0769;-4.0045;-97.1686;35.4000 
300.659;0.0601;-0.0103;0.9951;0.0000;0.0000;0.0000;-0.0769;-3.9990;-97.1631;35.4800 
300.659;0.0601;-0.0103;0.9951;0.0000;0.0000;0.0000;-0.0769;-3.9990;-97.1631;35.4800 
300.659;0.0601;-0.0103;0.9951;0.0000;0.0000;0.0000;-0.0769;-3.9990;-97.1576;35.4200 
300.659;0.0601;-0.0103;0.9951;0.0000;0.0000;0.0000;-0.0824;-3.9935;-97.1521;35.4200 
300.659;0.0601;-0.0103;0.9951;0.0000;0.0000;0.0000;-0.0824;-3.9935;-97.1466;35.4400 
300.659;0.0601;-0.0103;0.9951;0.0000;0.0000;0.0000;-0.0824;-3.9935;-97.1466;35.4400 
300.659;0.0601;-0.0103;0.9951;0.0000;0.0000;0.0000;-0.0824;-3.9880;-97.1411;35.4400 
300.659;0.0601;-0.0103;0.9951;0.0000;0.0000;0.0000;-0.0879;-3.9880;-97.1411;35.4000 
300.659;0.0601;-0.0103;0.9951;0.0000;0.0000;0.0000;-0.0879;-3.9880;-97.1356;35.4000 
300.659;0.0601;-0.0103;0.9951;0.0000;0.0000;0.0000;-0.0879;-3.9880;-97.1356;35.3900 
300.659;0.0601;-0.0103;0.9951;0.0000;0.0000;0.0000;-0.0934;-3.9825;-97.1301;35.3900 
300.659;0.0601;-0.0103;0.9951;0.0000;0.0000;0.0000;-0.0934;-3.9825;-97.1301;35.3800 
300.659;0.0601;-0.0103;0.9951;0.0000;0.0000;0.0000;-0.0934;-3.9825;-97.1246;35.3800 
300.659;0.0601;-0.0103;0.9951;0.0000;0.0000;0.0000;-0.0934;-3.9771;-97.1246;35.4400 
300.659;0.0605;-0.0098;0.9951;0.0000;0.0000;0.0000;-0.0989;-3.9771;-97.1246;35.4400 
300.659;0.0605;-0.0098;0.9951;0.0000;0.0000;0.0000;-0.0989;-3.9771;-97.1191;35.3700 
300.659;0.0605;-0.0098;0.9951;0.0000;0.0000;0.0000;-0.0989;-3.9771;-97.1191;35.3700 
300.679;0.0605;-0.0098;0.9951;0.0000;0.0000;0.0000;-0.0989;-3.9716;-97.1136;35.5100 
300.679;0.0605;-0.0098;0.9951;0.0000;0.0000;0.0000;-0.1044;-3.9716;-97.1082;35.5100 
300.679;0.0605;-0.0098;0.9951;0.0000;0.0000;0.0000;-0.1044;-3.9716;-97.1082;35.4000 
300.679;0.0605;-0.0098;0.9951;0.0000;0.0000;0.0000;-0.1044;-3.9716;-97.1027;35.4000 
300.679;0.0605;-0.0098;0.9951;0.0000;0.0000;0.0000;-0.1044;-3.9661;-97.0972;35.4000 
300.689;0.0605;-0.0103;0.9946;0.0610;0.0000;0.0000;-0.1099;-3.9661;-97.0972;35.5100 
300.689;0.0605;-0.0103;0.9946;0.0610;0.0000;0.0000;-0.1099;-3.9661;-97.0917;35.5100 
300.689;0.0605;-0.0103;0.9946;0.0610;0.0000;0.0000;-0.1099;-3.9606;-97.0862;35.4000 
300.689;0.0605;-0.0103;0.9946;0.0610;0.0000;0.0000;-0.1099;-3.9606;-97.0807;35.4000 
300.699;0.0605;-0.0103;0.9946;0.0610;0.0000;0.0000;-0.1099;-3.9606;-97.0807;35.4300 
300.699;0.0605;-0.0103;0.9946;0.0610;0.0000;0.0000;-0.1154;-3.9606;-97.0752;35.4300 
300.699;0.0605;-0.0103;0.9946;0.0610;0.0000;0.0000;-0.1154;-3.9551;-97.0697;35.4900 
300.719;0.0605;-0.0103;0.9946;0.0610;0.0000;0.0000;-0.1154;-3.9551;-97.0697;35.4900 
300.719;0.0605;-0.0098;0.9946;0.0610;0.0000;0.0000;-0.1154;-3.9551;-97.0642;35.4900 
300.719;0.0605;-0.0098;0.9946;0.0610;0.0000;0.0000;-0.1154;-3.9551;-97.0642;35.4900 
300.719;0.0605;-0.0098;0.9946;0.0610;0.0000;0.0000;-0.1208;-3.9496;-97.0587;35.4200 
300.729;0.0605;-0.0098;0.9946;0.0610;0.0000;0.0000;-0.1208;-3.9496;-97.0587;35.4200 
300.729;0.0605;-0.0098;0.9946;0.0610;0.0000;0.0000;-0.1208;-3.9496;-97.0587;35.4800 
300.729;0.0605;-0.0098;0.9946;0.0610;0.0000;0.0000;-0.1208;-3.9496;-97.0532;35.4800 
300.729;0.0605;-0.0098;0.9946;0.0610;0.0000;0.0000;-0.1208;-3.9441;-97.0532;35.4300 
300.839;0.0605;-0.0098;0.9946;0.0610;0.0000;0.0000;-0.1263;-3.9441;-97.0477;35.4300 
300.839;0.0601;-0.0103;0.9946;0.0610;0.0000;0.0000;-0.1263;-3.9441;-97.0477;35.4300 
300.839;0.0601;-0.0103;0.9946;0.0610;0.0000;0.0000;-0.1263;-3.9441;-97.0422;35.4100 
300.839;0.0601;-0.0103;0.9946;0.0610;0.0000;0.0000;-0.1263;-3.9386;-97.0367;35.4100 
300.859;0.0601;-0.0103;0.9946;0.0610;0.0000;0.0000;-0.1263;-3.9386;-97.0367;35.4900 
300.859;0.0601;-0.0103;0.9946;0.0610;0.0000;0.0000;-0.1263;-3.9386;-97.0313;35.4900 
300.859;0.0601;-0.0103;0.9946;0.0610;0.0000;0.0000;-0.1318;-3.9331;-97.0258;35.4300 
300.859;0.0601;-0.0103;0.9946;0.0610;0.0000;0.0000;-0.1318;-3.9331;-97.0203;35.4300 
300.859;0.0601;-0.0103;0.9946;0.0610;0.0000;0.0000;-0.1318;-3.9331;-97.0203;35.4400 
300.859;0.0601;-0.0103;0.9946;0.0610;0.0000;0.0000;-0.1318;-3.9331;-97.0148;35.4400 
300.859;0.0601;-0.0103;0.9946;0.0610;0.0000;0.0000;-0.1318;-3.9276;-97.0093;35.4600 
300.859;0.0601;-0.0103;0.9946;0.0610;0.0000;0.0000;-0.1373;-3.9276;-97.0038;35.4600 
300.859;0.0601;-0.0103;0.9946;0.0610;0.0000;0.0000;-0.1373;-3.9276;-97.0038;35.4400 
300.859;0.0601;-0.0103;0.9946;0.0610;0.0000;0.0000;-0.1373;-3.9276;-96.9983;35.4400 
300.859;0.0601;-0.0103;0.9946;0.0610;0.0000;0.0000;-0.1373;-3.9221;-96.9983;35.3800 
300.859;0.0601;-0.0103;0.9946;0.0610;0.0000;0.0000;-0.1373;-3.9221;-96.9928;35.3800 
300.859;0.0601;-0.0103;0.9946;0.0610;0.0000;0.0000;-0.1428;-3.9221;-96.9928;35.3600 
300.859;0.0601;-0.0107;0.9946;0.0610;0.0000;0.0000;-0.1428;-3.9221;-96.9873;35.3600 
300.859;0.0601;-0.0107;0.9946;0.0610;0.0000;0.0000;-0.1428;-3.9166;-96.9873;35.3600 
300.879;0.0601;-0.0107;0.9946;0.0610;0.0000;0.0000;-0.1428;-3.9166;-96.9818;35.4200 
300.879;0.0601;-0.0107;0.9946;0.0610;0.0000;0.0000;-0.1428;-3.9166;-96.9763;35.4200 
300.879;0.0601;-0.0107;0.9946;0.0610;0.0000;0.0000;-0.1483;-3.9166;-96.9763;35.4200 
300.879;0.0601;-0.0107;0.9946;0.0610;0.0000;0.0000;-0.1483;-3.9111;-96.9708;35.4200 
300.899;0.0601;-0.0107;0.9946;0.0610;0.0000;0.0000;-0.1483;-3.9111;-96.9653;35.4400 
300.899;0.0601;-0.0107;0.9946;0.0610;0.0000;0.0000;-0.1483;-3.9111;-96.9598;35.4400 
300.899;0.0601;-0.0107;0.9951;0.0610;0.0000;0.0000;-0.1483;-3.9111;-96.9543;35.4300 
300.899;0.0601;-0.0107;0.9951;0.0610;0.0000;0.0000;-0.1538;-3.9056;-96.9489;35.4300 
300.919;0.0601;-0.0107;0.9951;0.0610;0.0000;0.0000;-0.1538;-3.9056;-96.9379;35.4800 
300.919;0.0601;-0.0107;0.9951;0.0610;0.0000;0.0000;-0.1538;-3.9056;-96.9324;35.4800 
300.919;0.0601;-0.0107;0.9951;0.0610;0.0000;0.0000;-0.1538;-3.9056;-96.9269;35.4600 
300.919;0.0601;-0.0107;0.9951;0.0610;0.0000;0.0000;-0.1538;-3.9001;-96.9214;35.4600 
300.939;0.0601;-0.0107;0.9951;0.0610;0.0000;0.0000;-0.1593;-3.9001;-96.9159;35.4100 
300.939;0.0601;-0.0107;0.9951;0.0610;0.0000;0.0000;-0.1593;-3.9001;-96.9049;35.4100 
300.939;0.0601;-0.0107;0.9951;0.0610;0.0000;0.0000;-0.1593;-3.9001;-96.8994;35.4200 
300.939;0.0601;-0.0107;0.9951;0.0000;0.0000;0.0000;-0.1593;-3.8947;-96.8939;35.4200 
300.949;0.0601;-0.0107;0.9951;0.0000;0.0000;0.0000;-0.1648;-3.8947;-96.8884;35.4200 
300.949;0.0601;-0.0107;0.9951;0.0000;0.0000;0.0000;-0.1648;-3.8947;-96.8829;35.4200 
300.949;0.0601;-0.0107;0.9951;0.0000;0.0000;0.0000;-0.1648;-3.8947;-96.8829;35.4200 
300.949;0.0601;-0.0107;0.9951;0.0000;0.0000;0.0000;-0.1648;-3.8892;-96.8774;35.4200 
301.059;0.0601;-0.0107;0.9951;0.0000;0.0000;0.0000;-0.1703;-3.8892;-96.8719;35.4200 
301.059;0.0601;-0.0107;0.9951;0.0000;0.0000;0.0000;-0.1703;-3.8892;-96.8719;35.4700 
301.059;0.0601;-0.0107;0.9951;0.0000;0.0000;0.0000;-0.1703;-3.8892;-96.8665;35.4700 
301.059