Time;ax;ay;az;wx;wy;wz;AngleX;AngleY;AngleZ;T 
409.791;0.0039;0.0078;0.9927;0.0000;0.0000;0.0000;0.4559;-0.2142;-55.6512;35.3100 
409.791;0.0039;0.0078;0.9927;0.0000;0.0000;0.0000;0.4559;-0.2142;-55.6512;35.4100 
409.791;0.0039;0.0078;0.9927;0.0000;0.0000;0.0000;0.4559;-0.2142;-55.6458;35.4100 
409.791;0.0034;0.0078;0.9927;0.0000;0.0000;0.0000;0.4559;-0.2142;-55.6458;35.3600 
409.791;0.0034;0.0078;0.9927;0.0000;0.0000;0.0000;0.4559;-0.2142;-55.6458;35.3600 
409.791;0.0034;0.0078;0.9927;0.0000;0.0000;0.0000;0.4559;-0.2142;-55.6458;35.3600 
409.791;0.0034;0.0078;0.9927;0.0000;0.0000;0.0000;0.4559;-0.2142;-55.6458;35.3600 
409.791;0.0034;0.0078;0.9927;0.0000;0.0000;0.0000;0.4559;-0.2142;-55.6458;35.3400 
409.791;0.0034;0.0078;0.9927;0.0000;0.0000;0.0000;0.4559;-0.2142;-55.6403;35.3400 
409.791;0.0034;0.0078;0.9927;0.0000;0.0000;0.0000;0.4559;-0.2142;-55.6403;35.3900 
409.791;0.0034;0.0078;0.9927;0.0000;0.0000;0.0000;0.4559;-0.2142;-55.6403;35.3900 
409.791;0.0039;0.0088;0.9932;0.0000;0.0000;0.0000;0.4559;-0.2142;-55.6403;35.3000 
409.791;0.0039;0.0088;0.9932;0.0000;0.0000;0.0000;0.4559;-0.2142;-55.6403;35.3000 
409.791;0.0039;0.0088;0.9932;0.0000;0.0000;0.0000;0.4559;-0.2142;-55.6403;35.3800 
409.791;0.0039;0.0088;0.9932;0.0000;0.0000;0.0000;0.4559;-0.2142;-55.6458;35.3800 
409.791;0.0039;0.0088;0.9932;0.0000;0.0000;0.0000;0.4559;-0.2142;-55.6458;35.3400 
409.791;0.0039;0.0088;0.9932;0.0000;0.0000;0.0000;0.4559;-0.2142;-55.6458;35.3400 
409.791;0.0039;0.0088;0.9932;0.0000;0.0000;0.0000;0.4559;-0.2142;-55.6458;35.3400 
409.791;0.0039;0.0088;0.9932;0.0000;0.0000;0.0000;0.4559;-0.2142;-55.6512;35.4300 
409.791;0.0034;0.0078;0.9932;0.0000;0.0000;0.0000;0.4559;-0.2142;-55.6512;35.4300 
409.791;0.0034;0.0078;0.9932;0.0000;0.0000;0.0000;0.4559;-0.2142;-55.6512;35.3400 
409.791;0.0034;0.0078;0.9932;0.0000;0.0000;0.0000;0.4559;-0.2142;-55.6512;35.3400 
409.791;0.0034;0.0078;0.9932;0.0000;0.0000;0.0000;0.4559;-0.2142;-55.6512;35.3100 
409.791;0.0034;0.0078;0.9932;0.0000;0.0000;0.0000;0.4559;-0.2142;-55.6567;35.3100 
409.791;0.0034;0.0078;0.9932;0.0000;0.0000;0.0000;0.4559;-0.2142;-55.6567;35.2700 
409.791;0.0034;0.0078;0.9932;0.0000;0.0000;0.0000;0.4559;-0.2142;-55.6567;35.2700 
409.791;0.0034;0.0078;0.9932;0.0000;0.0000;0.0000;0.4559;-0.2142;-55.6622;35.3600 
409.841;0.0049;0.0083;0.9937;0.0000;0.0000;0.0000;0.4559;-0.2142;-55.6622;35.3600 
409.841;0.0049;0.0083;0.9937;0.0000;0.0000;0.0000;0.4559;-0.2142;-55.6622;35.4500 
409.841;0.0049;0.0083;0.9937;0.0000;0.0000;0.0000;0.4559;-0.2142;-55.6622;35.4500 
409.841;0.0049;0.0083;0.9937;0.0000;0.0000;0.0000;0.4559;-0.2142;-55.6677;35.4300 
409.841;0.0049;0.0083;0.9937;0.0000;0.0000;0.0000;0.4559;-0.2142;-55.6677;35.4300 
409.841;0.0049;0.0083;0.9937;0.0000;0.0000;0.0000;0.4559;-0.2142;-55.6677;35.3600 
409.841;0.0049;0.0083;0.9937;0.0000;0.0000;0.0000;0.4614;-0.2142;-55.6677;35.3600 
409.841;0.0049;0.0083;0.9937;0.0000;0.0000;0.0000;0.4614;-0.2142;-55.6677;35.3600 
409.841;0.0034;0.0098;0.9932;0.0000;0.0000;0.0000;0.4614;-0.2142;-55.6677;35.3900 
409.841;0.0034;0.0098;0.9932;0.0000;0.0000;0.0000;0.4614;-0.2142;-55.6677;35.3900 
409.841;0.0034;0.0098;0.9932;0.0000;0.0000;0.0000;0.4614;-0.2142;-55.6677;35.3400 
409.841;0.0034;0.0098;0.9932;0.0000;0.0000;0.0000;0.4614;-0.2142;-55.6677;35.3400 
409.841;0.0034;0.0098;0.9932;0.0000;0.0000;0.0000;0.4614;-0.2142;-55.6677;35.3400 
409.841;0.0034;0.0098;0.9932;0.0000;0.0000;0.0000;0.4614;-0.2142;-55.6677;35.3400 
409.841;0.0034;0.0098;0.9932;0.0000;0.0000;0.0000;0.4614;-0.2142;-55.6677;35.3500 
409.841;0.0034;0.0098;0.9932;0.0000;0.0000;0.0000;0.4614;-0.2142;-55.6677;35.3500 
409.841;0.0039;0.0073;0.9932;0.0000;0.0000;0.0000;0.4614;-0.2142;-55.6677;35.3400 
409.841;0.0039;0.0073;0.9932;0.0000;0.0000;0.0000;0.4614;-0.2142;-55.6677;35.3400 
409.841;0.0039;0.0073;0.9932;0.0000;0.0000;0.0000;0.4614;-0.2142;-55.6677;35.3200 
409.841;0.0039;0.0073;0.9932;0.0000;0.0000;0.0000;0.4614;-0.2142;-55.6677;35.3200 
409.841;0.0039;0.0073;0.9932;0.0000;0.0000;0.0000;0.4614;-0.2142;-55.6677;35.3400 
409.841;0.0039;0.0073;0.9932;0.0000;0.0000;0.0000;0.4614;-0.2142;-55.6677;35.3400 
409.841;0.0039;0.0073;0.9932;0.0000;0.0000;0.0000;0.4614;-0.2142;-55.6677;35.3700 
409.841;0.0039;0.0073;0.9932;0.0000;0.0000;0.0000;0.4614;-0.2142;-55.6677;35.3700 
409.841;0.0029;0.0083;0.9922;0.0000;0.0000;0.0000;0.4614;-0.2142;-55.6677;35.3700 
409.841;0.0029;0.0083;0.9922;0.0000;0.0000;0.0000;0.4614;-0.2142;-55.6677;35.3100 
409.841;0.0029;0.0083;0.9922;0.0000;0.0000;0.0000;0.4614;-0.2142;-55.6677;35.3100 
409.841;0.0029;0.0083;0.9922;0.0000;0.0000;0.0000;0.4614;-0.2142;-55.6677;35.3600 
409.841;0.0029;0.0083;0.9922;0.0000;0.0000;0.0000;0.4614;-0.2142;-55.6677;35.3600 
409.841;0.0029;0.0083;0.9922;0.0000;0.0000;0.0000;0.4614;-0.2142;-55.6677;35.3700 
409.861;0.0029;0.0083;0.9922;0.0000;0.0000;0.0000;0.4614;-0.2142;-55.6732;35.3700 
409.861;0.0029;0.0083;0.9922;0.0000;0.0000;0.0000;0.4614;-0.2142;-55.6732;35.3700 
409.861;0.0034;0.0073;0.9922;0.0000;0.0000;0.0000;0.4614;-0.2142;-55.6732;35.3700 
409.861;0.0034;0.0073;0.9922;0.0000;0.0000;0.0000;0.4614;-0.2142;-55.6732;35.3300 
409.861;0.0034;0.0073;0.9922;0.0000;0.0000;0.0000;0.4614;-0.2142;-55.6732;35.3300 
409.861;0.0034;0.0073;0.9922;0.0000;0.0000;0.0000;0.4614;-0.2142;-55.6732;35.3700 
409.861;0.0034;0.0073;0.9922;0.0000;0.0000;0.0000;0.4614;-0.2142;-55.6732;35.3700 
409.861;0.0034;0.0073;0.9922;0.0000;0.0000;0.0000;0.4614;-0.2142;-55.6732;35.3400 
409.861;0.0034;0.0073;0.9922;0.0000;0.0000;0.0000;0.4614;-0.2142;-55.6732;35.3400 
409.861;0.0034;0.0073;0.9922;0.0000;0.0000;0.0000;0.4614;-0.2142;-55.6732;35.3300 
409.861;0.0029;0.0063;0.9917;0.0000;0.0000;0.0000;0.4614;-0.2142;-55.6732;35.3300 
409.861;0.0029;0.0063;0.9917;0.0000;0.0000;0.0000;0.4614;-0.2142;-55.6732;35.3300 
409.861;0.0029;0.0063;0.9917;0.0000;0.0000;0.0000;0.4614;-0.2142;-55.6787;35.3700 
409.861;0.0029;0.0063;0.9917;0.0000;0.0000;0.0000;0.4614;-0.2142;-55.6787;35.3700 
409.861;0.0029;0.0063;0.9917;0.0000;0.0000;0.0000;0.4614;-0.2142;-55.6787;35.3300 
409.861;0.0029;0.0063;0.9917;0.0000;0.0000;0.0000;0.4614;-0.2142;-55.6787;35.3300 
409.861;0.0029;0.0063;0.9917;0.0000;0.0000;0.0000;0.4559;-0.2142;-55.6787;35.3700 
409.861;0.0029;0.0063;0.9917;0.0000;0.0000;0.0000;0.4559;-0.2142;-55.6842;35.3700 
409.861;0.0054;0.0083;0.9927;0.0000;0.0000;0.0000;0.4559;-0.2142;-55.6842;35.3700 
409.861;0.0054;0.0083;0.9927;0.0000;0.0000;0.0000;0.4559;-0.2142;-55.6842;35.3700 
409.861;0.0054;0.0083;0.9927;0.0000;0.0000;0.0000;0.4559;-0.2142;-55.6842;35.3200 
409.861;0.0054;0.0083;0.9927;0.0000;0.0000;0.0000;0.4559;-0.2142;-55.6842;35.3200 
409.861;0.0054;0.0083;0.9927;0.0000;0.0000;0.0000;0.4559;-0.2142;-55.6842;35.3400 
409.861;0.0054;0.0083;0.9927;0.0000;0.0000;0.0000;0.4614;-0.2142;-55.6842;35.3400 
409.861;0.0054;0.0083;0.9927;0.0000;0.0000;0.0000;0.4614;-0.2142;-55.6842;35.3300 
409.861;0.0054;0.0083;0.9927;0.0000;0.0000;0.0000;0.4614;-0.2142;-55.6842;35.3300 
409.861;0.0034;0.0034;0.9912;0.0000;0.0000;0.0000;0.4559;-0.2142;-55.6842;35.3300 
409.861;0.0034;0.0034;0.9912;0.0000;0.0000;0.0000;0.4559;-0.2142;-55.6842;35.3500 
409.861;0.0034;0.0034;0.9912;0.0000;0.0000;0.0000;0.4559;-0.2142;-55.6842;35.3500 
409.861;0.0034;0.0034;0.9912;0.0000;0.0000;0.0000;0.4559;-0.2142;-55.6842;35.3400 
409.881;0.0034;0.0034;0.9912;0.0000;0.0000;0.0000;0.4559;-0.2142;-55.6842;35.3400 
409.881;0.0034;0.0034;0.9912;0.0000;0.0000;0.0000;0.4559;-0.2142;-55.6842;35.3200 
409.881;0.0034;0.0034;0.9912;0.0000;0.0000;0.0000;0.4559;-0.2142;-55.6897;35.3200 
409.881;0.0034;0.0034;0.9912;0.0000;0.0000;0.0000;0.4504;-0.2142;-55.6897;35.3400 
409.881;0.0054;0.0073;0.9927;0.0000;0.0000;0.0000;0.4504;-0.2142;-55.6897;35.3400 
409.881;0.0054;0.0073;0.9927;0.0000;0.0000;0.0000;0.4504;-0.2142;-55.6897;35.3200 
409.881;0.0054;0.0073;0.9927;0.0000;0.0000;0.0000;0.4504;-0.2142;-55.6897;35.3200 
409.881;0.0054;0.0073;0.9927;0.0000;0.0000;0.0000;0.4504;-0.2142;-55.6952;35.3100 
409.881;0.0054;0.0073;0.9927;0.0000;0.0000;0.0000;0.4504;-0.2142;-55.6952;35.3100 
409.881;0.0054;0.0073;0.9927;0.0000;0.0000;0.0000;0.4504;-0.2142;-55.6952;35.2800 
409.881;0.0054;0.0073;0.9927;0.0000;0.0000;0.0000;0.4504;-0.2142;-55.6952;35.2800 
409.881;0.0054;0.0073;0.9927;0.0000;0.0000;0.0000;0.4504;-0.2142;-55.6952;35.3500 
409.881;0.0034;0.0054;0.9917;0.0000;0.0000;0.0000;0.4504;-0.2142;-55.6952;35.3500 
409.881;0.0034;0.0054;0.9917;0.0000;0.0000;0.0000;0.4504;-0.2142;-55.7007;35.3500 
409.881;0.0034;0.0054;0.9917;0.0000;0.0000;0.0000;0.4504;-0.2142;-55.7007;35.3000 
409.881;0.0034;0.0054;0.9917;0.0000;0.0000;0.0000;0.4504;-0.2142;-55.7007;35.3000 
409.881;0.0034;0.0054;0.9917;0.0000;0.0000;0.0000;0.4504;-0.2142;-55.7062;35.3400 
409.881;0.0034;0.0054;0.9917;0.0000;0.0000;0.0000;0.4504;-0.2142;-55.7062;35.3400 
409.881;0.0034;0.0054;0.9917;0.0000;0.0000;0.0000;0.4504;-0.2142;-55.7062;35.3600 
409.881;0.0034;0.0054;0.9917;0.0000;0.0000;0.0000;0.4504;-0.2142;-55.7117;35.3600 
409.881;0.0039;0.0068;0.9927;0.0000;0.0000;0.0000;0.4504;-0.2142;-55.7117;35.3700 
409.881;0.0039;0.0068;0.9927;0.0000;0.0000;0.0000;0.4504;-0.2142;-55.7172;35.3700 
409.881;0.0039;0.0068;0.9927;0.0000;0.0000;0.0000;0.4504;-0.2142;-55.7172;35.3300 
409.881;0.0039;0.0068;0.9927;0.0000;0.0000;0.0000;0.4504;-0.2142;-55.7172;35.3300 
409.881;0.0039;0.0068;0.9927;0.0000;0.0000;0.0000;0.4504;-0.2142;-55.7172;35.4000 
409.881;0.0039;0.0068;0.9927;0.0000;0.0000;0.0000;0.4504;-0.2142;-55.7172;35.4000 
409.881;0.0039;0.0068;0.9927;0.0000;0.0000;0.0000;0.4504;-0.2142;-55.7172;35.3100 
409.881;0.0039;0.0068;0.9927;0.0000;0.0000;0.0000;0.4504;-0.2142;-55.7172;35.3100 
409.881;0.0024;0.0088;0.9917;0.0000;0.0000;0.0000;0.4504;-0.2142;-55.7172;35.3500 
409.881;0.0024;0.0088;0.9917;0.0000;0.0000;0.0000;0.4504;-0.2142;-55.7172;35.3500 
409.881;0.0024;0.0088;0.9917;0.0000;0.0000;0.0000;0.4504;-0.2142;-55.7172;35.3500 
409.891;0.0024;0.0088;0.9917;0.0000;0.0000;0.0000;0.4504;-0.2142;-55.7172;35.3900 
409.891;0.0024;0.0088;0.9917;0.0000;0.0000;0.0000;0.4504;-0.2142;-55.7172;35.3900 
409.891;0.0024;0.0088;0.9917;0.0000;0.0000;0.0000;0.4504;-0.2142;-55.7117;35.3800 
409.891;0.0024;0.0088;0.9917;0.0000;0.0000;0.0000;0.4504;-0.2142;-55.7117;35.3800 
409.891;0.0024;0.0088;0.9917;0.0000;0.0000;0.0000;0.4504;-0.2142;-55.7117;35.3700 
409.891;0.0039;0.0088;0.9927;0.0000;0.0000;0.0000;0.4504;-0.2142;-55.7117;35.3700 
409.891;0.0039;0.0088;0.9927;0.0000;0.0000;0.0000;0.4504;-0.2142;-55.7117;35.3100 
409.891;0.0039;0.0088;0.9927;0.0000;0.0000;0.0000;0.4504;-0.2142;-55.7172;35.3100 
409.891;0.0039;0.0088;0.9927;0.0000;0.0000;0.0000;0.4504;-0.2142;-55.7172;35.3500 
409.891;0.0039;0.0088;0.9927;0.0000;0.0000;0.0000;0.4504;-0.2142;-55.7172;35.3500 
409.891;0.0039;0.0088;0.9927;0.0000;0.0000;0.0000;0.4504;-0.2142;-55.7172;35.3400 
409.891;0.0039;0.0088;0.9927;0.0000;0.0000;0.0000;0.4504;-0.2142;-55.7172;35.3400 
409.891;0.0039;0.0088;0.9927;0.0000;0.0000;0.0000;0.4504;-0.2142;-55.7172;35.3200 
409.891;0.0034;0.0049;0.9927;0.0000;0.0000;0.0000;0.4504;-0.2142;-55.7117;35.3200 
409.891;0.0034;0.0049;0.9927;0.0000;0.0000;0.0000;0.4504;-0.2142;-55.7117;35.3900 
409.891;0.0034;0.0049;0.9927;0.0000;0.0000;0.0000;0.4504;-0.2142;-55.7117;35.3900 
409.891;0.0034;0.0049;0.9927;0.0000;0.0000;0.0000;0.4504;-0.2142;-55.7062;35.3900 
409.891;0.0034;0.0049;0.9927;0.0000;0.0000;0.0000;0.4504;-0.2142;-55.7062;35.3200 
409.891;0.0034;0.0049;0.9927;0.0000;0.0000;0.0000;0.4504;-0.2142;-55.7062;35.3200 
409.891;0.0034;0.0049;0.9927;0.0000;0.0000;0.0000;0.4449;-0.2142;-55.7062;35.4000 
409.891;0.0034;0.0049;0.9927;0.0000;0.0000;0.0000;0.4449;-0.2142;-55.7007;35.4000 
409.891;0.0039;0.0088;0.9927;0.0000;0.0000;0.0000;0.4449;-0.2142;-55.7007;35.3000 
409.891;0.0039;0.0088;0.9927;0.0000;0.0000;0.0000;0.4449;-0.2142;-55.7007;35.3000 
409.891;0.0039;0.0088;0.9927;0.0000;0.0000;0.0000;0.4449;-0.2142;-55.7007;35.3000 
409.891;0.0039;0.0088;0.9927;0.0000;0.0000;0.0000;0.4449;-0.2142;-55.6952;35.3000 
409.891;0.0039;0.0088;0.9927;0.0000;0.0000;0.0000;0.4504;-0.2142;-55.6952;35.3500 
409.891;0.0039;0.0088;0.9927;0.0000;0.0000;0.0000;0.4504;-0.2142;-55.6952;35.3500 
409.891;0.0039;0.0088;0.9927;0.0000;0.0000;0.0000;0.4504;-0.2142;-55.6952;35.3500 
409.891;0.0039;0.0088;0.9927;0.0000;0.0000;0.0000;0.4504;-0.2142;-55.6952;35.3500 
409.891;0.0039;0.0078;0.9922;0.0000;0.0000;0.0000;0.4504;-0.2142;-55.6952;35.2900 
409.937;0.0039;0.0078;0.9922;0.0000;0.0000;0.0000;0.4504;-0.2142;-55.7007;35.2900 
409.937;0.0039;0.0078;0.9922;0.0000;0.0000;0.0000;0.4504;-0.2142;-55.7007;35.3800 
409.937;0.0039;0.0078;0.9922;0.0000;0.0000;0.0000;0.4504;-0.2142;-55.7007;35.3800 
409.937;0.0039;0.0078;0.9922;0.0000;0.0000;0.0000;0.4504;-0.2142;-55.7007;35.3800 
409.937;0.0039;0.0078;0.9922;0.0000;0.0000;0.0000;0.4504;-0.2142;-55.7007;35.3000 
409.937;0.0039;0.0078;0.9922;0.0000;0.0000;0.0000;0.4504;-0.2142;-55.7007;35.3000 
409.937;0.0039;0.0078;0.9922;0.0000;0.0000;0.0000;0.4504;-0.2142;-55.7007;35.3600 
409.937;0.0039;0.0068;0.9927;0.0000;0.0000;0.0000;0.4504;-0.2142;-55.7007;35.3600 
409.937;0.0039;0.0068;0.9927;0.0000;0.0000;0.0000;0.4504;-0.2142;-55.7007;35.3600 
409.937;0.0039;0.0068;0.9927;0.0000;0.0000;0.0000;0.4504;-0.2142;-55.7007;35.3600 
409.937;0.0039;0.0068;0.9927;0.0000;0.0000;0.0000;0.4504;-0.2142;-55.7007;35.3600 
409.937;0.0039;0.0068;0.9927;0.0000;0.0000;0.0000;0.4504;-0.2142;-55.7007;35.3600 
409.957;0.0039;0.0068;0.9927;0.0000;0.0000;0.0000;0.4504;-0.2142;-55.7062;35.3100 
409.957;0.0039;0.0068;0.9927;0.0000;0.0000;0.0000;0.4449;-0.2142;-55.7062;35.3100 
409.957;0.0039;0.0068;0.9927;0.0000;0.0000;0.0000;0.4449;-0.2142;-55.7062;35.3400 
409.957;0.0044;0.0083;0.9932;0.0000;0.0000;0.0000;0.4449;-0.2142;-55.7062;35.3400 
409.957;0.0044;0.0083;0.9932;0.0000;0.0000;0.0000;0.4449;-0.2142;-55.7117;35.4000 
409.957;0.0044;0.0083;0.9932;0.0000;0.0000;0.0000;0.4504;-0.2142;-55.7117;35.4000 
409.957;0.0044;0.0083;0.9932;0.0000;0.0000;0.0000;0.4504;-0.2142;-55.7117;35.4000 
409.957;0.0044;0.0083;0.9932;0.0000;0.0000;0.0000;0.4504;-0.2142;-55.7172;35.3300 
409.957;0.0044;0.0083;0.9932;0.0000;0.0000;0.0000;0.4504;-0.2142;-55.7172;35.3300 
409.957;0.0044;0.0083;0.9932;0.0000;0.0000;0.0000;0.4504;-0.2142;-55.7172;35.3800 
409.957;0.0044;0.0083;0.9932;0.0000;0.0000;0.0000;0.4504;-0.2142;-55.7172;35.3800 
409.957;0.0029;0.0063;0.9927;0.0000;0.0000;0.0000;0.4504;-0.2142;-55.7172;35.3400 
409.957;0.0029;0.0063;0.9927;0.0000;0.0000;0.0000;0.4504;-0.2142;-55.7172;35.3400 
409.967;0.0029;0.0063;0.9927;0.0000;0.0000;0.0000;0.4449;-0.2142;-55.7172;35.3400 
409.967;0.0029;0.0063;0.9927;0.0000;0.0000;0.0000;0.4449;-0.2142;-55.7172;35.3400 
409.983;0.0029;0.0063;0.9927;0.0000;0.0000;0.0000;0.4449;-0.2142;-55.7172;35.3100 
409.983;0.0029;0.0063;0.9927;0.0000;0.0000;0.0000;0.4449;-0.2142;-55.7172;35.3100 
409.983;0.0029;0.0063;0.9927;0.0000;0.0000;0.0000;0.4449;-0.2142;-55.7172;35.3700 
409.983;0.0029;0.0063;0.9927;0.0000;0.0000;0.0000;0.4449;-0.2142;-55.7172;35.3700 
409.993;0.0054;0.0034;0.9922;0.0000;0.0000;0.0000;0.4449;-0.2142;-55.7172;35.3500 
409.993;0.0054;0.0034;0.9922;0.0000;0.0000;0.0000;0.4449;-0.2142;-55.7172;35.3500 
410.023;0.0054;0.0034;0.9922;0.0000;0.0000;0.0000;0.4449;-0.2142;-55.7172;35.3600 
410.023;0.0054;0.0034;0.9922;0.0000;0.0000;0.0000;0.4449;-0.2142;-55.7172;35.3600 
410.033;0.0054;0.0034;0.9922;0.0000;0.0000;0.0000;0.4449;-0.2142;-55.7172;35.3600 
410.033;0.0054;0.0034;0.9922;0.0000;0.0000;0.0000;0.4395;-0.2142;-55.7117;35.3700 
410.033;0.0054;0.0034;0.9922;0.0000;0.0000;0.0000;0.4395;-0.2142;-55.7117;35.3700 
410.033;0.0054;0.0034;0.9922;0.0000;0.0000;0.0000;0.4395;-0.2142;-55.7117;35.3800 
410.033;0.0029;0.0034;0.9937;0.0000;0.0000;0.0000;0.4395;-0.2142;-55.7172;35.3800 
410.033;0.0029;0.0034;0.9937;0.0000;0.0000;0.0000;0.4395;-0.2142;-55.7172;35.3300 
410.053;0.0029;0.0034;0.9937;0.0000;0.0000;0.0000;0.4395;-0.2142;-55.7172;35.3300 
410.053;0.0029;0.0034;0.9937;0.0000;0.0000;0.0000;0.4395;-0.2142;-55.7172;35.4000 
410.113;0.0029;0.0034;0.9937;0.0000;0.0000;0.0000;0.4395;-0.2142;-55.7172;35.4000 
410.123;0.0029;0.0034;0.9937;0.0000;0.0000;0.0000;0.4340;-0.2142;-55.7172;35.3200 
410.123;0.0029;0.0034;0.9937;0.0000;0.0000;0.0000;0.4340;-0.2142;-55.7172;35.3200 
410.133;0.0029;0.0034;0.9937;0.0000;0.0000;0.0000;0.4340;-0.2142;-55.7117;35.3300 
410.133;0.0054;0.0132;0.9927;0.0000;0.0000;0.0000;0.4340;-0.2142;-55.7117;35.3300 
410.143;0.0054;0.0132;0.9927;0.0000;0.0000;0.0000;0.4395;-0.2142;-55.7117;35.3500 
410.143;0.0054;0.0132;0.9927;0.0000;0.0000;0.0000;0.4395;-0.2142;-55.7117;35.3500 
410.143;0.0054;0.0132;0.9927;0.0000;0.0000;0.0000;0.4395;-0.2142;-55.7172;35.3900 
410.143;0.0054;0.0132;0.9927;0.0000;0.0000;0.0000;0.4395;-0.2142;-55.7172;35.3900 
410.153;0.0054;0.0132;0.9927;0.0000;0.0000;0.0000;0.4395;-0.2142;-55.7172;35.3900 
410.153;0.0054;0.0132;0.9927;0.0000;0.0000;0.0000;0.4395;-0.2142;-55.7172;35.3400 
410.153;0.0054;0.0132;0.9927;0.0000;0.0000;0.0000;0.4449;-0.2142;-55.7227;35.3400 
410.153;0.0024;0.0073;0.9941;0.3052;0.0000;0.0000;0.4449;-0.2142;-55.7227;35.3600 
410.153;0.0024;0.0073;0.9941;0.3052;0.0000;0.0000;0.4449;-0.2142;-55.7227;35.3600 
410.153;0.0024;0.0073;0.9941;0.3052;0.0000;0.0000;0.4449;-0.2142;-55.7227;35.2800 
410.153;0.0024;0.0073;0.9941;0.3052;0.0000;0.0000;0.4504;-0.2142;-55.7281;35.2800 
410.153;0.0024;0.0073;0.9941;0.3052;0.0000;0.0000;0.4504;-0.2142;-55.7281;35.3200 
410.163;0.0024;0.0073;0.9941;0.3052;0.0000;0.0000;0.4504;-0.2142;-55.7336;35.3200 
410.163;0.0024;0.0073;0.9941;0.3052;0.0000;0.0000;0.4504;-0.2142;-55.7391;35.3700 
410.163;0.0024;0.0073;0.9941;0.3052;0.0000;0.0000;0.4559;-0.2142;-55.7391;35.3700 
410.163;0.0054;0.0093;0.9956;0.1831;0.0610;0.0000;0.4559;-0.2142;-55.7391;35.3500 
410.163;0.0054;0.0093;0.9956;0.1831;0.0610;0.0000;0.4559;-0.2142;-55.7446;35.3500 
410.163;0.0054;0.0093;0.9956;0.1831;0.0610;0.0000;0.4559;-0.2142;-55.7446;35.3500 
410.173;0.0054;0.0093;0.9956;0.1831;0.0610;0.0000;0.4614;-0.2142;-55.7446;35.3500 
410.173;0.0054;0.0093;0.9956;0.1831;0.0610;0.0000;0.4614;-0.2142;-55.7501;35.3500 
410.183;0.0054;0.0093;0.9956;0.1831;0.0610;0.0000;0.4614;-0.2142;-55.7501;35.3500 
410.183;0.0054;0.0093;0.9956;0.1831;0.0610;0.0000;0.4614;-0.2142;-55.7501;35.3500 
410.193;0.0054;0.0093;0.9956;0.1831;0.0610;0.0000;0.4614;-0.2142;-55.7501;35.3300 
410.193;0.0005;0.0103;0.9922;0.0610;0.0610;0.0000;0.4669;-0.2142;-55.7501;35.3300 
410.203;0.0005;0.0103;0.9922;0.0610;0.0610;0.0000;0.4669;-0.2142;-55.7501;35.3800 
410.203;0.0005;0.0103;0.9922;0.0610;0.0610;0.0000;0.4669;-0.2142;-55.7501;35.3800 
410.213;0.0005;0.0103;0.9922;0.0610;0.0610;0.0000;0.4669;-0.2087;-55.7556;35.3000 
410.223;0.0005;0.0103;0.9922;0.0610;0.0610;0.0000;0.4669;-0.2087;-55.7556;35.3000 
410.223;0.0005;0.0103;0.9922;0.0610;0.0610;0.0000;0.4669;-0.2087;-55.7556;35.3600 
410.233;0.0005;0.0103;0.9922;0.0610;0.0610;0.0000;0.4669;-0.2087;-55.7556;35.3600 
410.233;0.0005;0.0103;0.9922;0.0610;0.0610;0.0000;0.4669;-0.2087;-55.7611;35.3700 
410.283;0.0039;0.0029;0.9946;-0.0610;0.0610;0.0000;0.4669;-0.2087;-55.7611;35.3700 
410.283;0.0039;0.0029;0.9946;-0.0610;0.0610;0.0000;0.4669;-0.2087;-55.7611;35.3300 
410.333;0.0039;0.0029;0.9946;-0.0610;0.0610;0.0000;0.4669;-0.2087;-55.7666;35.3300 
410.333;0.0039;0.0029;0.9946;-0.0610;0.0610;0.0000;0.4669;-0.2087;-55.7721;35.4000 
410.333;0.0039;0.0029;0.9946;-0.0610;0.0610;0.0000;0.4614;-0.2087;-55.7721;35.4000 
410.333;0.0039;0.0029;0.9946;-0.0610;0.0610;0.0000;0.4614;-0.2087;-55.7721;35.3800 
410.333;0.0039;0.0029;0.9946;-0.0610;0.0610;0.0000;0.4614;-0.2032;-55.7721;35.3800 
410.333;0.0039;0.0029;0.9946;-0.0610;0.0610;0.0000;0.4614;-0.2032;-55.7776;35.3800 
410.333;0.0015;0.0015;0.9922;-0.1831;0.0610;0.0000;0.4559;-0.2032;-55.7776;35.3500 
410.333;0.0015;0.0015;0.9922;-0.1831;0.0610;0.0000;0.4559;-0.2032;-55.7776;35.3500 
410.333;0.0015;0.0015;0.9922;-0.1831;0.0610;0.0000;0.4559;-0.2032;-55.7776;35.3400 
410.333;0.0015;0.0015;0.9922;-0.1831;0.0610;0.0000;0.4504;-0.2032;-55.7776;35.3400 
410.333;0.0015;0.0015;0.9922;-0.1831;0.0610;0.0000;0.4504;-0.2032;-55.7776;35.3300 
410.333;0.0015;0.0015;0.9922;-0.1831;0.0610;0.0000;0.4504;-0.2032;-55.7776;35.3300 
410.343;0.0015;0.0015;0.9922;-0.1831;0.0610;0.0000;0.4449;-0.2032;-55.7776;35.3200 
410.343;0.0015;0.0015;0.9922;-0.1831;0.0610;0.0000;0.4449;-0.1978;-55.7776;35.3200 
410.343;0.0044;0.0093;0.9941;-0.1831;0.0610;0.0000;0.4449;-0.1978;-55.7721;35.3300 
410.343;0.0044;0.0093;0.9941;-0.1831;0.0610;0.0000;0.4449;-0.1978;-55.7721;35.3300 
410.343;0.0044;0.0093;0.9941;-0.1831;0.0610;0.0000;0.4395;-0.1978;-55.7721;35.3500 
410.343;0.0044;0.0093;0.9941;-0.1831;0.0610;0.0000;0.4395;-0.1978;-55.7721;35.3500 
410.343;0.0044;0.0093;0.9941;-0.1831;0.0610;0.0000;0.4395;-0.1978;-55.7721;35.3600 
410.343;0.0044;0.0093;0.9941;-0.1831;0.0610;0.0000;0.4395;-0.1978;-55.7721;35.3600 
410.343;0.0044;0.0093;0.9941;-0.1831;0.0610;0.0000;0.4395;-0.1978;-55.7721;35.3600 
410.343;0.0044;0.0093;0.9941;-0.1831;0.0610;0.0000;0.4395;-0.1978;-55.7721;35.4300 
410.373;0.0015;0.0029;0.9922;-0.0610;0.0610;0.0000;0.4395;-0.1978;-55.7721;35.4300 
410.373;0.0015;0.0029;0.9922;-0.0610;0.0610;0.0000;0.4395;-0.1978;-55.7721;35.3400 
410.393;0.0015;0.0029;0.9922;-0.0610;0.0610;0.0000;0.4340;-0.1978;-55.7721;35.3400 
410.393;0.0015;0.0029;0.9922;-0.0610;0.0610;0.0000;0.4340;-0.1978;-55.7721;35.3500 
410.393;0.0015;0.0029;0.9922;-0.0610;0.0610;0.0000;0.4340;-0.1978;-55.7721;35.3500 
410.393;0.0015;0.0029;0.9922;-0.0610;0.0610;0.0000;0.4340;-0.1923;-55.7721;35.4100 
410.393;0.0015;0.0029;0.9922;-0.0610;0.0610;0.0000;0.4340;-0.1923;-55.7721;35.4100 
410.403;0.0015;0.0029;0.9922;-0.0610;0.0610;0.0000;0.4285;-0.1923;-55.7776;35.3900 
410.403;0.0044;0.0063;0.9941;0.0000;0.0610;0.0000;0.4285;-0.1923;-55.7776;35.3900 
410.403;0.0044;0.0063;0.9941;0.0000;0.0610;0.0000;0.4285;-0.1923;-55.7776;35.3100 
410.403;0.0044;0.0063;0.9941;0.0000;0.0610;0.0000;0.4285;-0.1923;-55.7831;35.3100 
410.413;0.0044;0.0063;0.9941;0.0000;0.0610;0.0000;0.4285;-0.1923;-55.7831;35.3800 
410.413;0.0044;0.0063;0.9941;0.0000;0.0610;0.0000;0.4285;-0.1923;-55.7831;35.3800 
410.423;0.0044;0.0063;0.9941;0.0000;0.0610;0.0000;0.4285;-0.1923;-55.7831;35.3500 
410.423;0.0044;0.0063;0.9941;0.0000;0.0610;0.0000;0.4285;-0.1923;-55.7831;35.3500 
410.433;0.0044;0.0063;0.9941;0.0000;0.0610;0.0000;0.4285;-0.1923;-55.7776;35.3500 
410.433;0.0015;0.0098;0.9917;0.0000;0.0610;0.0610;0.4285;-0.1923;-55.7776;35.3900 
410.443;0.0015;0.0098;0.9917;0.0000;0.0610;0.0610;0.4285;-0.1923;-55.7776;35.3900 
410.443;0.0015;0.0098;0.9917;0.0000;0.0610;0.0610;0.4285;-0.1923;-55.7721;35.3700 
410.503;0.0015;0.0098;0.9917;0.0000;0.0610;0.0610;0.4285;-0.1923;-55.7721;35.3700 
410.503;0.0015;0.0098;0.9917;0.0000;0.0610;0.0610;0.4285;-0.1868;-55.7666;35.3400 
410.514;0.0015;0.0098;0.9917;0.0000;0.0610;0.0610;0.4340;-0.1868;-55.7666;35.3400 
410.514;0.0015;0.0098;0.9917;0.0000;0.0610;0.0610;0.4340;-0.1868;-55.7611;35.3000 
410.514;0.0015;0.0098;0.9917;0.0000;0.0610;0.0610;0.4340;-0.1868;-55.7611;35.3000 
410.514;0.0029;0.0088;0.9927;0.0000;0.0610;0.0610;0.4340;-0.1868;-55.7611;35.3600 
410.514;0.0029;0.0088;0.9927;0.0000;0.0610;0.0610;0.4340;-0.1868;-55.7556;35.3600 
410.514;0.0029;0.0088;0.9927;0.0000;0.0610;0.0610;0.4340;-0.1868;-55.7556;35.3100 
410.514;0.0029;0.0088;0.9927;0.0000;0.0610;0.0610;0.4340;-0.1868;-55.7556;35.3100 
410.514;0.0029;0.0088;0.9927;0.0000;0.0610;0.0610;0.4340;-0.1868;-55.7556;35.3200 
410.514;0.0029;0.0088;0.9927;0.0000;0.0610;0.0610;0.4340;-0.1868;-55.7556;35.3200 
410.514;0.0029;0.0088;0.9927;0.0000;0.0610;0.0610;0.4340;-0.1868;-55.7556;35.3500 
410.514;0.0029;0.0088;0.9927;0.0000;0.0610;0.0610;0.4340;-0.1868;-55.7501;35.3500 
410.514;0.0024;0.0083;0.9927;0.0000;0.0610;0.0610;0.4340;-0.1868;-55.7501;35.3500 
410.524;0.0024;0.0083;0.9927;0.0000;0.0610;0.0610;0.4340;-0.1813;-55.7501;35.4200 
410.524;0.0024;0.0083;0.9927;0.0000;0.0610;0.0610;0.4340;-0.1813;-55.7501;35.4200 
410.534;0.0024;0.0083;0.9927;0.0000;0.0610;0.0610;0.4340;-0.1813;-55.7501;35.4200 
410.534;0.0024;0.0083;0.9927;0.0000;0.0610;0.0610;0.4340;-0.1813;-55.7501;35.4200 
410.544;0.0024;0.0083;0.9927;0.0000;0.0610;0.0610;0.4340;-0.1813;-55.7446;35.3400 
410.544;0.0024;0.0083;0.9927;0.0000;0.0610;0.0610;0.4340;-0.1813;-55.7446;35.3400 
410.544;0.0024;0.0083;0.9927;0.0000;0.0610;0.0610;0.4340;-0.1813;-55.7446;35.3400 
410.554;0.0029;0.0083;0.9927;0.0000;0.0610;0.0610;0.4340;-0.1813;-55.7446;35.3400 
410.554;0.0029;0.0083;0.9927;0.0000;0.0610;0.0610;0.4340;-0.1813;-55.7391;35.4000 
410.564;0.0029;0.0083;0.9927;0.0000;0.0610;0.0610;0.4340;-0.1813;-55.7391;35.4000 
410.564;0.0029;0.0083;0.9927;0.0000;0.0610;0.0610;0.4340;-0.1813;-55.7391;35.3500 
410.574;0.0029;0.0083;0.9927;0.0000;0.0610;0.0610;0.4340;-0.1813;-55.7391;35.3500 
410.574;0.0029;0.0083;0.9927;0.0000;0.0610;0.0610;0.4340;-0.1813;-55.7336;35.3700 
410.584;0.0029;0.0083;0.9927;0.0000;0.0610;0.0610;0.4340;-0.1813;-55.7336;35.3700 
410.584;0.0029;0.0083;0.9927;0.0000;0.0610;0.0610;0.4340;-0.1758;-55.7336;35.3600 
410.604;0.0024;0.0073;0.9927;0.0000;0.0000;0.0000;0.4340;-0.1758;-55.7336;35.3600 
410.604;0.0024;0.0073;0.9927;0.0000;0.0000;0.0000;0.4340;-0.1758;-55.7336;35.3600 
410.624;0.0024;0.0073;0.9927;0.0000;0.0000;0.0000;0.4340;-0.1758;-55.7336;35.3600 
410.624;0.0024;0.0073;0.9927;0.0000;0.0000;0.0000;0.4340;-0.1758;-55.7336;35.3600 
410.624;0.0024;0.0073;0.9927;0.0000;0.0000;0.0000;0.4340;-0.1758;-55.7336;35.3700 
410.624;0.0024;0.0073;0.9927;0.0000;0.0000;0.0000;0.4340;-0.1758;-55.7336;35.3700 
410.624;0.0024;0.0073;0.9927;0.0000;0.0000;0.0000;0.4340;-0.1758;-55.7336;35.3700 
410.624;0.0024;0.0073;0.9927;0.0000;0.0000;0.0000;0.4340;-0.1758;-55.7336;35.3700 
410.634;0.0039;0.0068;0.9937;0.0000;0.0000;0.0000;0.4340;-0.1758;-55.7281;35.3100 
410.634;0.0039;0.0068;0.9937;0.0000;0.0000;0.0000;0.4340;-0.1758;-55.7281;35.3100 
410.644;0.0039;0.0068;0.9937;0.0000;0.0000;0.0000;0.4340;-0.1758;-55.7281;35.3700 
410.644;0.0039;0.0068;0.9937;0.0000;0.0000;0.0000;0.4340;-0.1758;-55.7281;35.3700 
410.654;0.0039;0.0068;0.9937;0.0000;0.0000;0.0000;0.4340;-0.1758;-55.7281;35.3600 
410.654;0.0039;0.0068;0.9937;0.0000;0.0000;0.0000;0.4340;-0.1758;-55.7281;35.3600 
410.664;0.0039;0.0068;0.9937;0.0000;0.0000;0.0000;0.4340;-0.1758;-55.7281;35.3800 
410.664;0.0039;0.0068;0.9937;0.0000;0.0000;0.0000;0.4340;-0.1758;-55.7281;35.3800 
410.674;0.0029;0.0068;0.9932;0.0000;0.0000;0.0000;0.4340;-0.1758;-55.7281;35.4100 
410.674;0.0029;0.0068;0.9932;0.0000;0.0000;0.0000;0.4340;-0.1758;-55.7281;35.4100 
410.724;0.0029;0.0068;0.9932;0.0000;0.0000;0.0000;0.4340;-0.1758;-55.7336;35.4100 
410.724;0.0029;0.0068;0.9932;0.0000;0.0000;0.0000;0.4340;-0.1758;-55.7336;35.3600 
410.744;0.0029;0.0068;0.9932;0.0000;0.0000;0.0000;0.4340;-0.1758;-55.7336;35.3600 
410.744;0.0029;0.0068;0.9932;0.0000;0.0000;0.0000;0.4340;-0.1758;-55.7336;35.2900 
410.744;0.0029;0.0068;0.9932;0.0000;0.0000;0.0000;0.4340;-0.1758;-55.7336;35.2900 
410.753;0.0029;0.0073;0.9932;0.0000;0.0000;0.0000;0.4340;-0.1758;-55.7336;35.3800 
410.753;0.0029;0.0073;0.9932;0.0000;0.0000;0.0000;0.4340;-0.1758;-55.7391;35.3800 
410.763;0.0029;0.0073;0.9932;0.0000;0.0000;0.0000;0.4340;-0.1758;-55.7391;35.3700 
410.763;0.0029;0.0073;0.9932;0.0000;0.0000;0.0000;0.4340;-0.1758;-55.7391;35.3700 
410.763;0.0029;0.0073;0.9932;0.0000;0.0000;0.0000;0.4340;-0.1758;-55.7391;35.3200 
410.763;0.0029;0.0073;0.9932;0.0000;0.0000;0.0000;0.4340;-0.1758;-55.7391;35.3200 
410.763;0.0029;0.0073;0.9932;0.0000;0.0000;0.0000;0.4340;-0.1758;-55.7391;35.3500 
410.763;0.0029;0.0073;0.9932;0.0000;0.0000;0.0000;0.4340;-0.1758;-55.7391;35.3500 
410.773;0.0029;0.0073;0.9937;0.0610;0.0610;0.0000;0.4340;-0.1758;-55.7391;35.4300 
410.773;0.0029;0.0073;0.9937;0.0610;0.0610;0.0000;0.4340;-0.1758;-55.7391;35.4300 
410.773;0.0029;0.0073;0.9937;0.0610;0.0610;0.0000;0.4340;-0.1758;-55.7391;35.4300 
410.773;0.0029;0.0073;0.9937;0.0610;0.0610;0.0000;0.4340;-0.1758;-55.7391;35.3500 
410.773;0.0029;0.0073;0.9937;0.0610;0.0610;0.0000;0.4340;-0.1758;-55.7391;35.3500 
410.773;0.0029;0.0073;0.9937;0.0610;0.0610;0.0000;0.4340;-0.1758;-55.7391;35.3900 
410.783;0.0029;0.0073;0.9937;0.0610;0.0610;0.0000;0.4340;-0.1758;-55.7391;35.3900 
410.783;0.0029;0.0073;0.9937;0.0610;0.0610;0.0000;0.4340;-0.1758;-55.7391;35.3000 
410.793;0.0015;0.0068;0.9927;0.0610;0.0610;0.0000;0.4395;-0.1758;-55.7391;35.3000 
410.793;0.0015;0.0068;0.9927;0.0610;0.0610;0.0000;0.4395;-0.1758;-55.7391;35.3800 
410.803;0.0015;0.0068;0.9927;0.0610;0.0610;0.0000;0.4395;-0.1758;-55.7391;35.3800 
410.803;0.0015;0.0068;0.9927;0.0610;0.0610;0.0000;0.4395;-0.1703;-55.7391;35.4000 
410.813;0.0015;0.0068;0.9927;0.0610;0.0610;0.0000;0.4395;-0.1703;-55.7391;35.4000 
410.813;0.0015;0.0068;0.9927;0.0610;0.0610;0.0000;0.4395;-0.1703;-55.7391;35.3700 
410.823;0.0015;0.0068;0.9927;0.0610;0.0610;0.0000;0.4395;-0.1703;-55.7391;35.3700 
410.823;0.0015;0.0068;0.9927;0.0610;0.0610;0.0000;0.4395;-0.1703;-55.7391;35.3800 
410.843;0.0015;0.0088;0.9932;0.0610;0.0610;0.0000;0.4395;-0.1703;-55.7391;35.3800 
410.843;0.0015;0.0088;0.9932;0.0610;0.0610;0.0000;0.4395;-0.1703;-55.7391;35.3100 
410.863;0.0015;0.0088;0.9932;0.0610;0.0610;0.0000;0.4395;-0.1703;-55.7391;35.3100 
410.863;0.0015;0.0088;0.9932;0.0610;0.0610;0.0000;0.4395;-0.1703;-55.7391;35.3100 
410.863;0.0015;0.0088;0.9932;0.0610;0.0610;0.0000;0.4395;-0.1648;-55.7391;35.3900 
410.863;0.0015;0.0088;0.9932;0.0610;0.0610;0.0000;0.4395;-0.1648;-55.7391;35.3900 
410.863;0.0015;0.0088;0.9932;0.0610;0.0610;0.0000;0.4395;-0.1648;-55.7391;35.3100 
410.883;0.0015;0.0088;0.9932;0.0610;0.0610;0.0000;0.4449;-0.1648;-55.7391;35.3100 
410.883;0.0010;0.0073;0.9927;0.0610;0.0610;0.0000;0.4449;-0.1648;-55.7391;35.2700 
410.883;0.0010;0.0073;0.9927;0.0610;0.0610;0.0000;0.4449;-0.1648;-55.7391;35.2700 
410.883;0.0010;0.0073;0.9927;0.0610;0.0610;0.0000;0.4449;-0.1648;-55.7391;35.4000 
410.893;0.0010;0.0073;0.9927;0.0610;0.0610;0.0000;0.4449;-0.1648;-55.7391;35.4000 
410.893;0.0010;0.0073;0.9927;0.0610;0.0610;0.0000;0.4449;-0.1648;-55.7391;35.3300 
410.933;0.0010;0.0073;0.9927;0.0610;0.0610;0.0000;0.4449;-0.1593;-55.7391;35.3300 
410.933;0.0010;0.0073;0.9927;0.0610;0.0610;0.0000;0.4449;-0.1593;-55.7391;35.3900 
410.953;0.0010;0.0073;0.9927;0.0610;0.0610;0.0000;0.4449;-0.1593;-55.7391;35.3900 
410.953;0.0010;0.0083;0.9922;0.0610;0.0610;0.0000;0.4449;-0.1593;-55.7391;35.3300 
410.953;0.0010;0.0083;0.9922;0.0610;0.0610;0.0000;0.4449;-0.1593;-55.7391;35.3300 
410.953;0.0010;0.0083;0.9922;0.0610;0.0610;0.0000;0.4449;-0.1593;-55.7391;35.3300 
410.953;0.0010;0.0083;0.9922;0.0610;0.0610;0.0000;0.4449;-0.1593;-55.7391;35.3300 
410.953;0.0010;0.0083;0.9922;0.0610;0.0610;0.0000;0.4449;-0.1593;-55.7391;35.3300 
410.953;0.0010;0.0083;0.9922;0.0610;0.0610;0.0000;0.4449;-0.1593;-55.7391;35.3100 
410.953;0.0010;0.0083;0.9922;0.0610;0.0610;0.0000;0.4449;-0.1538;-55.7391;35.3100 
410.963;0.0010;0.0083;0.9922;0.0610;0.0610;0.0000;0.4449;-0.1538;-55.7446;35.4300 
410.963;0.0015;0.0083;0.9927;0.0610;0.0000;0.0000;0.4504;-0.1538;-55.7446;35.4300 
410.973;0.0015;0.0083;0.9927;0.0610;0.0000;0.0000;0.4504;-0.1538;-55.7446;35.3300 
410.973;0.0015;0.0083;0.9927;0.0610;0.0000;0.0000;0.4504;-0.1538;-55.7446;35.3300 
410.973;0.0015;0.0083;0.9927;0.0610;0.0000;0.0000;0.4504;-0.1538;-55.7501;35.3800 
410.973;0.0015;0.0083;0.9927;0.0610;0.0000;0.0000;0.4504;-0.1538;-55.7501;35.3800 
410.973;0.0015;0.0083;0.9927;0.0610;0.0000;0.0000;0.4504;-0.1538;-55.7501;35.3700 
410.973;0.0015;0.0083;0.9927;0.0610;0.0000;0.0000;0.4504;-0.1538;-55.7501;35.3700 
410.983;0.0015;0.0083;0.9927;0.0610;0.0000;0.0000;0.4504;-0.1538;-55.7556;35.3400 
410.983;0.0020;0.0083;0.9927;0.0000;0.0000;0.0000;0.4504;-0.1538;-55.7556;35.3400 
410.993;0.0020;0.0083;0.9927;0.0000;0.0000;0.0000;0.4504;-0.1538;-55.7501;35.3400 
410.993;0.0020;0.0083;0.9927;0.0000;0.0000;0.0000;0.4504;-0.1538;-55.7501;35.3400 
411.003;0.0020;0.0083;0.9927;0.0000;0.0000;0.0000;0.4504;-0.1538;-55.7501;35.3100 
411.003;0.0020;0.0083;0.9927;0.0000;0.0000;0.0000;0.4504;-0.1538;-55.7501;35.3100 
411.013;0.0020;0.0083;0.9927;0.0000;0.0000;0.0000;0.4504;-0.1538;-55.7501;35.3100 
411.013;0.0020;0.0083;0.9927;0.0000;0.0000;0.0000;0.4504;-0.1538;-55.7501;35.3100 
411.023;0.0020;0.0083;0.9927;0.0000;0.0000;0.0000;0.4504;-0.1538;-55.7501;35.3100 
411.033;0.0024;0.0083;0.9932;0.0000;-0.0610;0.0000;0.4504;-0.1538;-55.7446;35.3700 
411.033;0.0024;0.0083;0.9932;0.0000;-0.0610;0.0000;0.4504;-0.1538;-55.7446;35.3700 
411.033;0.0024;0.0083;0.9932;0.0000;-0.0610;0.0000;0.4504;-0.1538;-55.7446;35.3500 
411.043;0.0024;0.0083;0.9932;0.0000;-0.0610;0.0000;0.4504;-0.1538;-55.7391;35.3500 
411.053;0.0024;0.0083;0.9932;0.0000;-0.0610;0.0000;0.4504;-0.1538;-55.7391;35.3400 
411.053;0.0024;0.0083;0.9932;0.0000;-0.0610;0.0000;0.4504;-0.1538;-55.7391;35.3400 
411.063;0.0024;0.0083;0.9932;0.0000;-0.0610;0.0000;0.4504;-0.1538;-55.7391;35.3800 
411.063;0.0024;0.0083;0.9932;0.0000;-0.0610;0.0000;0.4504;-0.1538;-55.7391;35.3800 
411.073;0.0024;0.0078;0.9937;0.0000;-0.0610;0.0000;0.4504;-0.1538;-55.7391;35.4300 
411.073;0.0024;0.0078;0.9937;0.0000;-0.0610;0.0000;0.4504;-0.1538;-55.7391;35.4300 
411.093;0.0024;0.0078;0.9937;0.0000;-0.0610;0.0000;0.4504;-0.1538;-55.7391;35.3300 
411.093;0.0024;0.0078;0.9937;0.0000;-0.0610;0.0000;0.4504;-0.1538;-55.7391;35.3300 
411.093;0.0024;0.0078;0.9937;0.0000;-0.0610;0.0000;0.4504;-0.1538;-55.7391;35.3000 
411.093;0.0024;0.0078;0.9937;0.0000;-0.0610;0.0000;0.4504;-0.1538;-55.7391;35.3000 
411.103;0.0024;0.0078;0.9937;0.0000;-0.0610;0.0000;0.4504;-0.1593;-55.7391;35.3000 
411.103;0.0024;0.0078;0.9937;0.0000;-0.0610;0.0000;0.4504;-0.1593;-55.7391;35.3500 
411.143;0.0024;0.0078;0.9937;0.0000;-0.0610;0.0000;0.4504;-0.1593;-55.7391;35.3500 
411.143;0.0024;0.0078;0.9937;0.0000;-0.0610;0.0000;0.4504;-0.1593;-55.7391;35.3100 
411.163;0.0024;0.0078;0.9937;0.0000;-0.0610;0.0000;0.4504;-0.1593;-55.7391;35.3100 
411.163;0.0024;0.0078;0.9937;0.0000;-0.0610;0.0000;0.4504;-0.1593;-55.7391;35.3400 
411.163;0.0024;0.0078;0.9937;0.0000;-0.0610;0.0000;0.4504;-0.1593;-55.7391;35.3400 
411.163;0.0024;0.0078;0.9937;0.0000;-0.0610;0.0000;0.4504;-0.1593;-55.7336;35.3900 
411.163;0.0024;0.0078;0.9937;0.0000;-0.0610;0.0000;0.4504;-0.1593;-55.7336;35.3900 
411.163;0.0024;0.0078;0.9937;0.0000;-0.0610;0.0000;0.4504;-0.1593;-55.7336;35.3200 
411.163;0.0039;0.0068;0.9946;0.0000;-0.0610;0.0000;0.4504;-0.1593;-55.7281;35.3200 
411.163;0.0039;0.0068;0.9946;0.0000;-0.0610;0.0000;0.4504;-0.1593;-55.7281;35.3100 
411.163;0.0039;0.0068;0.9946;0.0000;-0.0610;0.0000;0.4504;-0.1593;-55.7281;35.3100 
411.163;0.0039;0.0068;0.9946;0.0000;-0.0610;0.0000;0.4504;-0.1593;-55.7281;35.3400 
411.173;0.0039;0.0068;0.9946;0.0000;-0.0610;0.0000;0.4504;-0.1593;-55.7281;35.3400 
411.173;0.0039;0.0068;0.9946;0.0000;-0.0610;0.0000;0.4504;-0.1593;-55.7227;35.3400 
411.183;0.0039;0.0068;0.9946;0.0000;-0.0610;0.0000;0.4504;-0.1648;-55.7227;35.3900 
411.183;0.0039;0.0068;0.9946;0.0000;-0.0610;0.0000;0.4504;-0.1648;-55.7227;35.3900 
411.193;0.0034;0.0049;0.9941;0.0000;0.0000;0.0000;0.4504;-0.1648;-55.7172;35.3300 
411.193;0.0034;0.0049;0.9941;0.0000;0.0000;0.0000;0.4504;-0.1648;-55.7172;35.3300 
411.213;0.0034;0.0049;0.9941;0.0000;0.0000;0.0000;0.4504;-0.1648;-55.7172;35.3500 
411.213;0.0034;0.0049;0.9941;0.0000;0.0000;0.0000;0.4504;-0.1648;-55.7117;35.3500 
411.213;0.0034;0.0049;0.9941;0.0000;0.0000;0.0000;0.4504;-0.1648;-55.7117;35.4000 
411.223;0.0034;0.0049;0.9941;0.0000;0.0000;0.0000;0.4504;-0.1648;-55.7117;35.4000 
411.223;0.0034;0.0049;0.9941;0.0000;0.0000;0.0000;0.4504;-0.1648;-55.7062;35.3800 
411.243;0.0034;0.0049;0.9941;0.0000;0.0000;0.0000;0.4449;-0.1648;-55.7062;35.3800 
411.243;0.0044;0.0073;0.9946;0.0610;0.0000;0.0000;0.4449;-0.1648;-55.7062;35.3600 
411.243;0.0044;0.0073;0.9946;0.0610;0.0000;0.0000;0.4504;-0.1648;-55.7007;35.3600 
411.243;0.0044;0.0073;0.9946;0.0610;0.0000;0.0000;0.4504;-0.1648;-55.7007;35.3400 
411.253;0.0044;0.0073;0.9946;0.0610;0.0000;0.0000;0.4504;-0.1648;-55.7007;35.3400 
411.253;0.0044;0.0073;0.9946;0.0610;0.0000;0.0000;0.4504;-0.1648;-55.7007;35.3700 
411.263;0.0044;0.0073;0.9946;0.0610;0.0000;0.0000;0.4504;-0.1648;-55.7007;35.3700 
411.263;0.0044;0.0073;0.9946;0.0610;0.0000;0.0000;0.4504;-0.1648;-55.7062;35.3700 
411.303;0.0044;0.0073;0.9946;0.0610;0.0000;0.0000;0.4504;-0.1648;-55.7062;35.3900 
411.303;0.0029;0.0054;0.9937;0.1221;0.0610;-0.0610;0.4504;-0.1648;-55.7062;35.3900 
411.303;0.0029;0.0054;0.9937;0.1221;0.0610;-0.0610;0.4504;-0.1648;-55.7062;35.3400 
411.303;0.0029;0.0054;0.9937;0.1221;0.0610;-0.0610;0.4504;-0.1648;-55.7062;35.3400 
411.323;0.0029;0.0054;0.9937;0.1221;0.0610;-0.0610;0.4504;-0.1648;-55.7117;35.3600 
411.323;0.0029;0.0054;0.9937;0.1221;0.0610;-0.0610;0.4504;-0.1648;-55.7117;35.3600 
411.323;0.0029;0.0054;0.9937;0.1221;0.0610;-0.0610;0.4504;-0.1648;-55.7117;35.3600 
411.323;0.0029;0.0054;0.9937;0.1221;0.0610;-0.0610;0.4504;-0.1648;-55.7172;35.3600 
411.323;0.0029;0.0054;0.9937;0.1221;0.0610;-0.0610;0.4504;-0.1648;-55.7172;35.3900 
411.323;0.0029;0.0088;0.9937;0.2441;0.0610;-0.0610;0.4504;-0.1648;-55.7227;35.3900 
411.323;0.0029;0.0088;0.9937;0.2441;0.0610;-0.0610;0.4559;-0.1648;-55.7227;35.3600 
411.323;0.0029;0.0088;0.9937;0.2441;0.0610;-0.0610;0.4559;-0.1648;-55.7281;35.3600 
411.323;0.0029;0.0088;0.9937;0.2441;0.0610;-0.0610;0.4559;-0.1593;-55.7281;35.3500 
411.323;0.0029;0.0088;0.9937;0.2441;0.0610;-0.0610;0.4559;-0.1593;-55.7336;35.3500 
411.333;0.0029;0.0088;0.9937;0.2441;0.0610;-0.0610;0.4614;-0.1593;-55.7336;35.4300 
411.333;0.0029;0.0088;0.9937;0.2441;0.0610;-0.0610;0.4614;-0.1593;-55.7391;35.4300 
411.353;0.0029;0.0088;0.9937;0.2441;0.0610;-0.0610;0.4614;-0.1593;-55.7391;35.4300 
411.353;0.0015;0.0098;0.9927;0.3052;0.1221;-0.0610;0.4614;-0.1593;-55.7446;35.3400 
411.363;0.0015;0.0098;0.9927;0.3052;0.1221;-0.0610;0.4669;-0.1593;-55.7446;35.3400 
411.373;0.0015;0.0098;0.9927;0.3052;0.1221;-0.0610;0.4669;-0.1593;-55.7501;35.3100 
411.373;0.0015;0.0098;0.9927;0.3052;0.1221;-0.0610;0.4669;-0.1593;-55.7501;35.3100 
411.403;0.0015;0.0098;0.9927;0.3052;0.1221;-0.0610;0.4724;-0.1538;-55.7556;35.3300 
411.403;0.0015;0.0098;0.9927;0.3052;0.1221;-0.0610;0.4724;-0.1538;-55.7556;35.3300 
411.403;0.0015;0.0098;0.9927;0.3052;0.1221;-0.0610;0.4724;-0.1538;-55.7556;35.3500 
411.403;0.0015;0.0098;0.9927;0.3052;0.1221;-0.0610;0.4779;-0.1538;-55.7611;35.3500 
411.413;0.0010;0.0103;0.9922;0.3052;0.0610;-0.0610;0.4779;-0.1538;-55.7611;35.3800 
411.413;0.0010;0.0103;0.9922;0.3052;0.0610;-0.0610;0.4779;-0.1538;-55.7611;35.3800 
411.413;0.0010;0.0103;0.9922;0.3052;0.0610;-0.0610;0.4834;-0.1538;-55.7666;35.3100 
411.413;0.0010;0.0103;0.9922;0.3052;0.0610;-0.0610;0.4834;-0.1538;-55.7666;35.3100 
411.413;0.0010;0.0103;0.9922;0.3052;0.0610;-0.0610;0.4834;-0.1483;-55.7666;35.3200 
411.413;0.0010;0.0103;0.9922;0.3052;0.0610;-0.0610;0.4889;-0.1483;-55.7721;35.3200 
411.433;0.0010;0.0103;0.9922;0.3052;0.0610;-0.0610;0.4889;-0.1483;-55.7721;35.3700 
411.433;0.0010;0.0103;0.9922;0.3052;0.0610;-0.0610;0.4889;-0.1483;-55.7721;35.3700 
411.453;0.0020;0.0098;0.9927;0.2441;0.0610;-0.0610;0.4944;-0.1483;-55.7721;35.3700 
411.453;0.0020;0.0098;0.9927;0.2441;0.0610;-0.0610;0.4944;-0.1483;-55.7721;35.3300 
411.453;0.0020;0.0098;0.9927;0.2441;0.0610;-0.0610;0.4944;-0.1483;-55.7776;35.3300 
411.453;0.0020;0.0098;0.9927;0.2441;0.0610;-0.0610;0.4999;-0.1483;-55.7776;35.3900 
411.453;0.0020;0.0098;0.9927;0.2441;0.0610;-0.0610;0.4999;-0.1483;-55.7831;35.3900 
411.453;0.0020;0.0098;0.9927;0.2441;0.0610;-0.0610;0.4999;-0.1483;-55.7831;35.3800 
411.473;0.0020;0.0098;0.9927;0.2441;0.0610;-0.0610;0.4999;-0.1483;-55.7831;35.3800 
411.473;0.0020;0.0098;0.9927;0.2441;0.0610;-0.0610;0.5054;-0.1483;-55.7886;35.3200 
411.473;0.0020;0.0098;0.9927;0.1831;0.0000;0.0000;0.5054;-0.1428;-55.7886;35.3200 
411.473;0.0020;0.0098;0.9927;0.1831;0.0000;0.0000;0.5054;-0.1428;-55.7941;35.3600 
411.523;0.0020;0.0098;0.9927;0.1831;0.0000;0.0000;0.5054;-0.1428;-55.7941;35.3600 
411.523;0.0020;0.0098;0.9927;0.1831;0.0000;0.0000;0.5054;-0.1428;-55.7941;35.3700 
411.543;0.0020;0.0098;0.9927;0.1831;0.0000;0.0000;0.5109;-0.1428;-55.7941;35.3700 
411.543;0.0020;0.0098;0.9927;0.1831;0.0000;0.0000;0.5109;-0.1428;-55.7996;35.3600 
411.543;0.0020;0.0098;0.9927;0.1831;0.0000;0.0000;0.5109;-0.1428;-55.7996;35.3600 
411.543;0.0020;0.0098;0.9927;0.1831;0.0000;0.0000;0.5109;-0.1428;-55.7996;35.3500 
411.543;0.0024;0.0083;0.9932;0.1221;0.0000;0.0000;0.5109;-0.1428;-55.7996;35.3500 
411.543;0.0024;0.0083;0.9932;0.1221;0.0000;0.0000;0.5109;-0.1428;-55.7996;35.3500 
411.543;0.0024;0.0083;0.9932;0.1221;0.0000;0.0000;0.5109;-0.1428;-55.7996;35.3800 
411.543;0.0024;0.0083;0.9932;0.1221;0.0000;0.0000;0.5164;-0.1428;-55.7996;35.3800 
411.543;0.0024;0.0083;0.9932;0.1221;0.0000;0.0000;0.5164;-0.1428;-55.7996;35.3900 
411.553;0.0024;0.0083;0.9932;0.1221;0.0000;0.0000;0.5164;-0.1428;-55.8051;35.3900 
411.553;0.0024;0.0083;0.9932;0.1221;0.0000;0.0000;0.5164;-0.1428;-55.8051;35.3300 
411.563;0.0024;0.0083;0.9932;0.1221;0.0000;0.0000;0.5164;-0.1428;-55.8051;35.3300 
411.563;0.0024;0.0098;0.9932;0.0610;0.0000;0.0000;0.5164;-0.1428;-55.8051;35.4100 
411.563;0.0024;0.0098;0.9932;0.0610;0.0000;0.0000;0.5164;-0.1428;-55.8051;35.4100 
411.563;0.0024;0.0098;0.9932;0.0610;0.0000;0.0000;0.5164;-0.1428;-55.8051;35.3400 
411.573;0.0024;0.0098;0.9932;0.0610;0.0000;0.0000;0.5164;-0.1428;-55.8051;35.3400 
411.573;0.0024;0.0098;0.9932;0.0610;0.0000;0.0000;0.5164;-0.1428;-55.8051;35.3300 
411.583;0.0024;0.0098;0.9932;0.0610;0.0000;0.0000;0.5164;-0.1428;-55.8051;35.3300 
411.583;0.0024;0.0098;0.9932;0.0610;0.0000;0.0000;0.5219;-0.1428;-55.8051;35.3700 
411.603;0.0024;0.0098;0.9932;0.0610;0.0000;0.0000;0.5219;-0.1428;-55.8051;35.3700 
411.603;0.0024;0.0093;0.9932;0.0610;0.0000;0.0000;0.5219;-0.1428;-55.7996;35.3700 
411.603;0.0024;0.0093;0.9932;0.0610;0.0000;0.0000;0.5219;-0.1428;-55.7996;35.4400 
411.603;0.0024;0.0093;0.9932;0.0610;0.0000;0.0000;0.5219;-0.1428;-55.7996;35.4400 
411.613;0.0024;0.0093;0.9932;0.0610;0.0000;0.0000;0.5219;-0.1428;-55.7996;35.3200 
411.613;0.0024;0.0093;0.9932;0.0610;0.0000;0.0000;0.5219;-0.1428;-55.7996;35.3200 
411.613;0.0024;0.0093;0.9932;0.0610;0.0000;0.0000;0.5219;-0.1428;-55.7996;35.4000 
411.613;0.0024;0.0093;0.9932;0.0610;0.0000;0.0000;0.5219;-0.1428;-55.7996;35.4000 
411.633;0.0024;0.0093;0.9932;0.0610;0.0000;0.0000;0.5219;-0.1428;-55.7996;35.3500 
411.633;0.0010;0.0098;0.9927;0.0610;0.0610;0.0000;0.5219;-0.1428;-55.7996;35.3500 
411.643;0.0010;0.0098;0.9927;0.0610;0.0610;0.0000;0.5219;-0.1428;-55.7941;35.3200 
411.643;0.0010;0.0098;0.9927;0.0610;0.0610;0.0000;0.5219;-0.1428;-55.7941;35.3200 
411.643;0.0010;0.0098;0.9927;0.0610;0.0610;0.0000;0.5219;-0.1428;-55.7941;35.3700 
411.643;0.0010;0.0098;0.9927;0.0610;0.0610;0.0000;0.5273;-0.1428;-55.7941;35.3700 
411.673;0.0010;0.0098;0.9927;0.0610;0.0610;0.0000;0.5273;-0.1428;-55.7941;35.2700 
411.693;0.0010;0.0098;0.9927;0.0610;0.0610;0.0000;0.5273;-0.1428;-55.7941;35.2700 
411.693;0.0010;0.0098;0.9927;0.0610;0.0610;0.0000;0.5273;-0.1373;-55.7941;35.3500 
411.693;0.0015;0.0112;0.9927;0.0610;0.0610;0.0000;0.5273;-0.1373;-55.7886;35.3500 
411.693;0.0015;0.0112;0.9927;0.0610;0.0610;0.0000;0.5273;-0.1373;-55.7941;35.3500 
411.693;0.0015;0.0112;0.9927;0.0610;0.0610;0.0000;0.5273;-0.1373;-55.7941;35.4200 
411.693;0.0015;0.0112;0.9927;0.0610;0.0610;0.0000;0.5273;-0.1373;-55.7941;35.4200 
411.743;0.0015;0.0112;0.9927;0.0610;0.0610;0.0000;0.5273;-0.1373;-55.7941;35.3800 
411.743;0.0015;0.0112;0.9927;0.0610;0.0610;0.0000;0.5328;-0.1373;-55.7941;35.3800 
411.743;0.0015;0.0112;0.9927;0.0610;0.0610;0.0000;0.5328;-0.1373;-55.7996;35.4100 
411.743;0.0015;0.0112;0.9927;0.0610;0.0610;0.0000;0.5328;-0.1373;-55.7996;35.4100 
411.753;0.0005;0.0093;0.9927;0.0610;0.0610;0.0000;0.5328;-0.1373;-55.7996;35.4000 
411.753;0.0005;0.0093;0.9927;0.0610;0.0610;0.0000;0.5328;-0.1318;-55.7996;35.4000 
411.753;0.0005;0.0093;0.9927;0.0610;0.0610;0.0000;0.5328;-0.1318;-55.7996;35.3800 
411.753;0.0005;0.0093;0.9927;0.0610;0.0610;0.0000;0.5328;-0.1318;-55.7996;35.3800 
411.753;0.0005;0.0093;0.9927;0.0610;0.0610;0.0000;0.5328;-0.1318;-55.7996;35.3600 
411.753;0.0005;0.0093;0.9927;0.0610;0.0610;0.0000;0.5328;-0.1318;-55.7996;35.3600 
411.753;0.0005;0.0093;0.9927;0.0610;0.0610;0.0000;0.5328;-0.1318;-55.7996;35.3700 
411.753;0.0005;0.0093;0.9927;0.0610;0.0610;0.0000;0.5328;-0.1318;-55.7941;35.3700 
411.753;0.0015;0.0098;0.9932;0.0000;0.0610;0.0000;0.5328;-0.1318;-55.7941;35.2900 
411.753;0.0015;0.0098;0.9932;0.0000;0.0610;0.0000;0.5328;-0.1318;-55.7941;35.2900 
411.763;0.0015;0.0098;0.9932;0.0000;0.0610;0.0000;0.5328;-0.1318;-55.7941;35.2900 
411.763;0.0015;0.0098;0.9932;0.0000;0.0610;0.0000;0.5328;-0.1263;-55.7886;35.3900 
411.773;0.0015;0.0098;0.9932;0.0000;0.0610;0.0000;0.5328;-0.1263;-55.7886;35.3900 
411.773;0.0015;0.0098;0.9932;0.0000;0.0610;0.0000;0.5328;-0.1263;-55.7831;35.3500 
411.793;0.0015;0.0098;0.9932;0.0000;0.0610;0.0000;0.5328;-0.1263;-55.7831;35.3500 
411.793;0.0015;0.0098;0.9932;0.0000;0.0610;0.0000;0.5328;-0.1263;-55.7776;35.3700 
411.803;0.0010;0.0103;0.9927;0.0000;0.0000;0.0000;0.5328;-0.1263;-55.7721;35.3700 
411.803;0.0010;0.0103;0.9927;0.0000;0.0000;0.0000;0.5328;-0.1263;-55.7721;35.4000 
411.803;0.0010;0.0103;0.9927;0.0000;0.0000;0.0000;0.5328;-0.1263;-55.7721;35.4000 
411.803;0.0010;0.0103;0.9927;0.0000;0.0000;0.0000;0.5383;-0.1263;-55.7666;35.3500 
411.813;0.0010;0.0103;0.9927;0.0000;0.0000;0.0000;0.5383;-0.1263;-55.7666;35.3500 
411.823;0.0010;0.0103;0.9927;0.0000;0.0000;0.0000;0.5383;-0.1263;-55.7666;35.3700 
411.823;0.0010;0.0103;0.9927;0.0000;0.0000;0.0000;0.5383;-0.1263;-55.7611;35.3700 
411.833;0.0010;0.0103;0.9927;0.0000;0.0000;0.0000;0.5383;-0.1263;-55.7611;35.3400 
411.833;0.0024;0.0088;0.9932;0.0000;0.0000;0.0000;0.5383;-0.1263;-55.7611;35.3400 
411.843;0.0024;0.0088;0.9932;0.0000;0.0000;0.0000;0.5383;-0.1263;-55.7611;35.3200 
411.843;0.0024;0.0088;0.9932;0.0000;0.0000;0.0000;0.5383;-0.1263;-55.7556;35.3200 
411.853;0.0024;0.0088;0.9932;0.0000;0.0000;0.0000;0.5383;-0.1263;-55.7556;35.3200 
411.853;0.0024;0.0088;0.9932;0.0000;0.0000;0.0000;0.5383;-0.1263;-55.7556;35.3900 
411.863;0.0024;0.0088;0.9932;0.0000;0.0000;0.0000;0.5383;-0.1263;-55.7556;35.3900 
411.863;0.0024;0.0088;0.9932;0.0000;0.0000;0.0000;0.5383;-0.1263;-55.7556;35.3200 
411.873;0.0024;0.0088;0.9932;0.0000;0.0000;0.0000;0.5383;-0.1263;-55.7556;35.3200 
411.873;0.0015;0.0088;0.9927;0.0000;0.0000;0.0000;0.5383;-0.1263;-55.7556;35.3900 
411.873;0.0015;0.0088;0.9927;0.0000;0.0000;0.0000;0.5383;-0.1263;-55.7556;35.3900 
411.873;0.0015;0.0088;0.9927;0.0000;0.0000;0.0000;0.5328;-0.1263;-55.7556;35.3400 
411.883;0.0015;0.0088;0.9927;0.0000;0.0000;0.0000;0.5328;-0.1263;-55.7556;35.3400 
411.883;0.0015;0.0088;0.9927;0.0000;0.0000;0.0000;0.5328;-0.1263;-55.7556;35.3100 
411.903;0.0015;0.0088;0.9927;0.0000;0.0000;0.0000;0.5328;-0.1263;-55.7556;35.3100 
411.903;0.0015;0.0088;0.9927;0.0000;0.0000;0.0000;0.5328;-0.1263;-55.7556;35.3800 
411.953;0.0015;0.0088;0.9927;0.0000;0.0000;0.0000;0.5328;-0.1263;-55.7556;35.3800 
411.953;0.0020;0.0103;0.9932;0.0000;0.0000;0.0000;0.5328;-0.1263;-55.7556;35.3800 
411.953;0.0020;0.0103;0.9932;0.0000;0.0000;0.0000;0.5328;-0.1263;-55.7556;35.3800 
411.953;0.0020;0.0103;0.9932;0.0000;0.0000;0.0000;0.5383;-0.1263;-55.7611;35.4000 
411.973;0.0020;0.0103;0.9932;0.0000;0.0000;0.0000;0.5383;-0.1263;-55.7611;35.4000 
411.973;0.0020;0.0103;0.9932;0.0000;0.0000;0.0000;0.5383;-0.1263;-55.7611;35.4000 
411.973;0.0020;0.0103;0.9932;0.0000;0.0000;0.0000;0.5383;-0.1263;-55.7611;35.3800 
411.973;0.0020;0.0103;0.9932;0.0000;0.0000;0.0000;0.5383;-0.1263;-55.7611;35.3800 
411.973;0.0020;0.0103;0.9932;0.0000;0.0000;0.0000;0.5383;-0.1263;-55.7611;35.3700 
411.973;0.0010;0.0083;0.9932;0.0000;0.0000;0.0000;0.5383;-0.1263;-55.7611;35.3700 
411.973;0.0010;0.0083;0.9932;0.0000;0.0000;0.0000;0.5383;-0.1263;-55.7611;35.3700 
411.973;0.0010;0.0083;0.9932;0.0000;0.0000;0.0000;0.5383;-0.1208;-55.7611;35.3700 
411.973;0.0010;0.0083;0.9932;0.0000;0.0000;0.0000;0.5383;-0.1208;-55.7611;35.3200 
411.973;0.0010;0.0083;0.9932;0.0000;0.0000;0.0000;0.5383;-0.1208;-55.7611;35.3200 
411.983;0.0010;0.0083;0.9932;0.0000;0.0000;0.0000;0.5383;-0.1208;-55.7611;35.3400 
411.983;0.0010;0.0083;0.9932;0.0000;0.0000;0.0000;0.5328;-0.1208;-55.7611;35.3400 
411.983;0.0010;0.0083;0.9932;0.0000;0.0000;0.0000;0.5328;-0.1208;-55.7611;35.4100 
412.003;0.0015;0.0098;0.9932;0.0000;0.0000;0.0000;0.5328;-0.1208;-55.7611;35.4100 
412.003;0.0015;0.0098;0.9932;0.0000;0.0000;0.0000;0.5383;-0.1208;-55.7611;35.3400 
412.023;0.0015;0.0098;0.9932;0.0000;0.0000;0.0000;0.5383;-0.1208;-55.7611;35.3400 
412.023;0.0015;0.0098;0.9932;0.0000;0.0000;0.0000;0.5383;-0.1208;-55.7611;35.3400 
412.043;0.0015;0.0098;0.9932;0.0000;0.0000;0.0000;0.5383;-0.1208;-55.7611;35.3800 
412.043;0.0015;0.0098;0.9932;0.0000;0.0000;0.0000;0.5383;-0.1208;-55.7556;35.3800 
412.043;0.0015;0.0098;0.9932;0.0000;0.0000;0.0000;0.5383;-0.1208;-55.7556;35.3700 
412.043;0.0015;0.0098;0.9932;0.0000;0.0000;0.0000;0.5383;-0.1208;-55.7556;35.3700 
412.043;0.0010;0.0098;0.9937;0.0000;0.0000;0.0000;0.5383;-0.1208;-55.7556;35.3400 
412.043;0.0010;0.0098;0.9937;0.0000;0.0000;0.0000;0.5383;-0.1208;-55.7556;35.3400 
412.053;0.0010;0.0098;0.9937;0.0000;0.0000;0.0000;0.5383;-0.1208;-55.7556;35.3100 
412.053;0.0010;0.0098;0.9937;0.0000;0.0000;0.0000;0.5383;-0.1208;-55.7556;35.3100 
412.053;0.0010;0.0098;0.9937;0.0000;0.0000;0.0000;0.5383;-0.1208;-55.7556;35.3000 
412.053;0.0010;0.0098;0.9937;0.0000;0.0000;0.0000;0.5383;-0.1208;-55.7556;35.3000 
412.073;0.0010;0.0098;0.9937;0.0000;0.0000;0.0000;0.5383;-0.1208;-55.7501;35.3500 
412.073;0.0010;0.0098;0.9937;0.0000;0.0000;0.0000;0.5383;-0.1208;-55.7501;35.3500 
412.073;0.0020;0.0088;0.9941;0.0000;0.0000;0.0000;0.5383;-0.1208;-55.7501;35.3400 
412.073;0.0020;0.0088;0.9941;0.0000;0.0000;0.0000;0.5383;-0.1208;-55.7501;35.3400 
412.083;0.0020;0.0088;0.9941;0.0000;0.0000;0.0000;0.5383;-0.1208;-55.7501;35.3300 
412.083;0.0020;0.0088;0.9941;0.0000;0.0000;0.0000;0.5383;-0.1208;-55.7556;35.3300 
412.093;0.0020;0.0088;0.9941;0.0000;0.0000;0.0000;0.5383;-0.1208;-55.7556;35.3300 
412.093;0.0020;0.0088;0.9941;0.0000;0.0000;0.0000;0.5383;-0.1208;-55.7556;35.3700 
412.103;0.0020;0.0088;0.9941;0.0000;0.0000;0.0000;0.5383;-0.1208;-55.7556;35.3700 
412.103;0.0020;0.0088;0.9941;0.0000;0.0000;0.0000;0.5383;-0.1208;-55.7556;35.2900 
412.113;0.0020;0.0088;0.9941;0.0000;0.0000;0.0000;0.5383;-0.1208;-55.7556;35.2900 
412.113;0.0020;0.0088;0.9941;0.0000;0.0000;0.0000;0.5383;-0.1208;-55.7556;35.3900 
412.123;0.0020;0.0088;0.9941;0.0000;0.0000;0.0000;0.5383;-0.1208;-55.7556;35.3900 
412.123;0.0020;0.0088;0.9941;0.0000;0.0000;0.0000;0.5383;-0.1208;-55.7556;35.3300 
412.163;0.0020;0.0088;0.9941;0.0000;0.0000;0.0000;0.5383;-0.1208;-55.7556;35.3300 
412.163;0.0020;0.0088;0.9941;0.0000;0.0000;0.0000;0.5383;-0.1208;-55.7556;35.3100 
412.183;0.0020;0.0088;0.9941;0.0000;0.0000;0.0000;0.5383;-0.1208;-55.7556;35.3100 
412.183;0.0020;0.0088;0.9941;0.0000;0.0000;0.0000;0.5383;-0.1208;-55.7556;35.3700 
412.183;0.0029;0.0093;0.9941;0.0000;0.0000;0.0000;0.5383;-0.1208;-55.7556;35.3700 
412.183;0.0029;0.0093;0.9941;0.0000;0.0000;0.0000;0.5383;-0.1208;-55.7556;35.3300 
412.183;0.0029;0.0093;0.9941;0.0000;0.0000;0.0000;0.5383;-0.1208;-55.7556;35.3300 
412.183;0.0029;0.0093;0.9941;0.0000;0.0000;0.0000;0.5383;-0.1208;-55.7556;35.4200 
412.183;0.0029;0.0093;0.9941;0.0000;0.0000;0.0000;0.5383;-0.1208;-55.7556;35.4200 
412.183;0.0029;0.0093;0.9941;0.0000;0.0000;0.0000;0.5383;-0.1208;-55.7556;35.4200 
412.183;0.0029;0.0093;0.9941;0.0000;0.0000;0.0000;0.5383;-0.1208;-55.7556;35.3700 
412.193;0.0029;0.0093;0.9941;0.0000;0.0000;0.0000;0.5383;-0.1208;-55.7556;35.3700 
412.193;0.0020;0.0083;0.9932;0.0000;0.0000;0.0000;0.5383;-0.1208;-55.7556;35.3500 
412.203;0.0020;0.0083;0.9932;0.0000;0.0000;0.0000;0.5328;-0.1208;-55.7556;35.3500 
412.203;0.0020;0.0083;0.9932;0.0000;0.0000;0.0000;0.5328;-0.1208;-55.7556;35.3500 
412.213;0.0020;0.0083;0.9932;0.0000;0.0000;0.0000;0.5328;-0.1208;-55.7556;35.3500 
412.213;0.0020;0.0083;0.9932;0.0000;0.0000;0.0000;0.5328;-0.1208;-55.7611;35.3400 
412.223;0.0020;0.0083;0.9932;0.0000;0.0000;0.0000;0.5328;-0.1208;-55.7611;35.3400 
412.223;0.0020;0.0083;0.9932;0.0000;0.0000;0.0000;0.5328;-0.1208;-55.7611;35.3800 
412.223;0.0020;0.0083;0.9932;0.0000;0.0000;0.0000;0.5328;-0.1208;-55.7666;35.3800 
412.223;0.0020;0.0093;0.9927;0.0000;0.0610;0.0000;0.5328;-0.1208;-55.7666;35.3900 
412.233;0.0020;0.0093;0.9927;0.0000;0.0610;0.0000;0.5328;-0.1208;-55.7666;35.3900 
412.233;0.0020;0.0093;0.9927;0.0000;0.0610;0.0000;0.5328;-0.1208;-55.7666;35.4000 
412.253;0.0020;0.0093;0.9927;0.0000;0.0610;0.0000;0.5328;-0.1208;-55.7721;35.4000 
412.253;0.0020;0.0093;0.9927;0.0000;0.0610;0.0000;0.5328;-0.1208;-55.7721;35.3300 
412.273;0.0020;0.0093;0.9927;0.0000;0.0610;0.0000;0.5328;-0.1154;-55.7721;35.3300 
412.273;0.0020;0.0093;0.9927;0.0000;0.0610;0.0000;0.5328;-0.1154;-55.7721;35.3300 
412.273;0.0020;0.0093;0.9927;0.0000;0.0610;0.0000;0.5328;-0.1154;-55.7721;35.3800 
412.273;0.0005;0.0098;0.9917;0.0000;0.0610;0.0000;0.5328;-0.1154;-55.7721;35.3800 
412.283;0.0005;0.0098;0.9917;0.0000;0.0610;0.0000;0.5328;-0.1154;-55.7721;35.4000 
412.283;0.0005;0.0098;0.9917;0.0000;0.0610;0.0000;0.5328;-0.1154;-55.7721;35.4000 
412.293;0.0005;0.0098;0.9917;0.0000;0.0610;0.0000;0.5328;-0.1154;-55.7721;35.3400 
412.293;0.0005;0.0098;0.9917;0.0000;0.0610;0.0000;0.5328;-0.1154;-55.7721;35.3400 
412.303;0.0005;0.0098;0.9917;0.0000;0.0610;0.0000;0.5328;-0.1154;-55.7721;35.3200 
412.303;0.0005;0.0098;0.9917;0.0000;0.0610;0.0000;0.5328;-0.1154;-55.7721;35.3200 
412.313;0.0005;0.0098;0.9917;0.0000;0.0610;0.0000;0.5328;-0.1154;-55.7721;35.3700 
412.323;0.0010;0.0098;0.9927;0.0000;0.0610;0.0000;0.5383;-0.1099;-55.7721;35.3700 
412.323;0.0010;0.0098;0.9927;0.0000;0.0610;0.0000;0.5383;-0.1099;-55.7776;35.3900 
412.323;0.0010;0.0098;0.9927;0.0000;0.0610;0.0000;0.5383;-0.1099;-55.7721;35.3900 
412.323;0.0010;0.0098;0.9927;0.0000;0.0610;0.0000;0.5383;-0.1099;-55.7721;35.3600 
412.333;0.0010;0.0098;0.9927;0.0000;0.0610;0.0000;0.5383;-0.1099;-55.7721;35.3600 
412.333;0.0010;0.0098;0.9927;0.0000;0.0610;0.0000;0.5383;-0.1099;-55.7721;35.3600 
412.373;0.0010;0.0098;0.9927;0.0000;0.0610;0.0000;0.5383;-0.1099;-55.7721;35.4100 
412.373;0.0010;0.0098;0.9927;0.0000;0.0610;0.0000;0.5383;-0.1099;-55.7721;35.4100 
412.393;0.0000;0.0088;0.9922;0.0000;0.0610;0.0000;0.5383;-0.1099;-55.7721;35.3100 
412.393;0.0000;0.0088;0.9922;0.0000;0.0610;0.0000;0.5383;-0.1099;-55.7721;35.3100 
412.393;0.0000;0.0088;0.9922;0.0000;0.0610;0.0000;0.5383;-0.1044;-55.7721;35.3800 
412.393;0.0000;0.0088;0.9922;0.0000;0.0610;0.0000;0.5383;-0.1044;-55.7721;35.3800 
412.393;0.0000;0.0088;0.9922;0.0000;0.0610;0.0000;0.5383;-0.1044;-55.7721;35.3500 
412.393;0.0000;0.0088;0.9922;0.0000;0.0610;0.0000;0.5383;-0.1044;-55.7721;35.3500 
412.393;0.0000;0.0088;0.9922;0.0000;0.0610;0.0000;0.5383;-0.1044;-55.7776;35.3800 
412.393;0.0000;0.0088;0.9922;0.0000;0.0610;0.0000;0.5383;-0.1044;-55.7776;35.3800 
412.393;-0.0010;0.0088;0.9946;0.0000;0.0000;0.0000;0.5383;-0.1044;-55.7776;35.3100 
412.393;-0.0010;0.0088;0.9946;0.0000;0.0000;0.0000;0.5383;-0.1044;-55.7776;35.3100 
412.403;-0.0010;0.0088;0.9946;0.0000;0.0000;0.0000;0.5328;-0.1044;-55.7776;35.3500 
412.403;-0.0010;0.0088;0.9946;0.0000;0.0000;0.0000;0.5328;-0.1044;-55.7776;35.3500 
412.413;-0.0010;0.0088;0.9946;0.0000;0.0000;0.0000;0.5328;-0.0989;-55.7776;35.3300 
412.413;-0.0010;0.0088;0.9946;0.0000;0.0000;0.0000;0.5328;-0.0989;-55.7776;35.3300 
412.423;-0.0010;0.0088;0.9946;0.0000;0.0000;0.0000;0.5328;-0.0989;-55.7776;35.3300 
412.423;-0.0010;0.0088;0.9946;0.0000;0.0000;0.0000;0.5328;-0.0989;-55.7776;35.3200 
412.433;-0.3428;-0.0010;1.0498;0.0000;0.0000;0.0000;0.5328;-0.0439;-55.7721;35.3200 
412.433;-0.3428;-0.0010;1.0498;0.0000;0.0000;0.0000;0.5328;0.0055;-55.7666;35.3500 
412.443;-0.3428;-0.0010;1.0498;0.0000;0.0000;0.0000;0.5273;0.0549;-55.7666;35.3500 
412.443;-0.3428;-0.0010;1.0498;0.0000;0.0000;0.0000;0.5273;0.1099;-55.7611;35.4200 
412.453;-0.3428;-0.0010;1.0498;0.0000;0.0000;0.0000;0.5219;0.1648;-55.7556;35.4200 
412.453;-0.3428;-0.0010;1.0498;0.0000;0.0000;0.0000;0.5219;0.2197;-55.7501;35.3500 
412.463;-0.3428;-0.0010;1.0498;0.0000;0.0000;0.0000;0.5164;0.2692;-55.7446;35.3500 
412.473;-0.3428;-0.0010;1.0498;0.0000;0.0000;0.0000;0.5164;0.3241;-55.7391;35.3700 
412.473;-0.7886;0.0054;1.0181;-0.5493;1.3428;0.7324;0.5054;0.4395;-55.7227;35.3700 
412.473;-0.7886;0.0054;1.0181;-0.5493;1.3428;0.7324;0.4999;0.5603;-55.7007;35.3600 
412.493;-0.7886;0.0054;1.0181;-0.5493;1.3428;0.7324;0.4889;0.6757;-55.6787;35.3600 
412.493;-0.7886;0.0054;1.0181;-0.5493;1.3428;0.7324;0.4779;0.7910;-55.6567;35.3900 
412.513;-0.7886;0.0054;1.0181;-0.5493;1.3428;0.7324;0.4724;0.9064;-55.6403;35.3900 
412.523;-0.7886;0.0054;1.0181;-0.5493;1.3428;0.7324;0.4614;1.0217;-55.6183;35.3700 
412.523;-0.7886;0.0054;1.0181;-0.5493;1.3428;0.7324;0.4559;1.1371;-55.5963;35.3700 
412.523;-0.7886;0.0054;1.0181;-0.5493;1.3428;0.7324;0.4449;1.2524;-55.5743;35.3700 
412.523;-1.5098;0.0610;0.9839;-1.0376;3.9063;2.3804;0.4230;1.4282;-55.5249;35.3400 
412.523;-1.5098;0.0610;0.9839;-1.0376;3.9063;2.3804;0.4065;1.6095;-55.4755;35.3400 
412.523;-1.5098;0.0610;0.9839;-1.0376;3.9063;2.3804;0.3845;1.7853;-55.4205;35.3400 
412.523;-1.5098;0.0610;0.9839;-1.0376;3.9063;2.3804;0.3680;1.9666;-55.3711;35.3400 
412.523;-1.5098;0.0610;0.9839;-1.0376;3.9063;2.3804;0.3461;2.1423;-55.3162;35.3800 
412.533;-1.5098;0.0610;0.9839;-1.0376;3.9063;2.3804;0.3296;2.3181;-55.2667;35.3800 
412.533;-1.5098;0.0610;0.9839;-1.0376;3.9063;2.3804;0.3076;2.4939;-55.2173;35.2800 
412.543;-1.5098;0.0610;0.9839;-1.0376;3.9063;2.3804;0.2856;2.6697;-55.1624;35.2800 
412.543;-2.2153;0.1011;0.9170;-1.3428;6.2256;4.1504;0.2472;2.8839;-55.0800;35.3800 
412.573;-2.2153;0.1011;0.9170;-1.3428;6.2256;4.1504;0.2087;3.0927;-54.9921;35.3800 
412.573;-2.2153;0.1011;0.9170;-1.3428;6.2256;4.1504;0.1703;3.3069;-54.9097;35.3800 
412.593;-2.2153;0.1011;0.9170;-1.3428;6.2256;4.1504;0.1318;3.5156;-54.8218;35.3800 
412.593;-2.2153;0.1011;0.9170;-1.3428;6.2256;4.1504;0.0934;3.7299;-54.7394;35.3600 
412.593;-2.2153;0.1011;0.9170;-1.3428;6.2256;4.1504;0.0549;3.9386;-54.6570;35.3600 
412.593;-2.2153;0.1011;0.9170;-1.3428;6.2256;4.1504;0.0165;4.1473;-54.5691;35.3400 
412.593;-2.2153;0.1011;0.9170;-1.3428;6.2256;4.1504;-0.0110;4.3561;-54.4867;35.3400 
412.593;-2.6646;0.1357;0.8501;-1.6479;6.5918;5.0049;-0.0604;4.5758;-54.3878;35.3400 
412.593;-2.6646;0.1357;0.8501;-1.6479;6.5918;5.0049;-0.1099;4.7955;-54.2889;35.3700 
412.593;-2.6646;0.1357;0.8501;-1.6479;6.5918;5.0049;-0.1593;5.0153;-54.1901;35.3700 
412.613;-2.6646;0.1357;0.8501;-1.6479;6.5918;5.0049;-0.2087;5.2350;-54.0912;35.3700 
412.613;-2.6646;0.1357;0.8501;-1.6479;6.5918;5.0049;-0.2527;5.4547;-53.9923;35.3700 
412.642;-2.6646;0.1357;0.8501;-1.6479;6.5918;5.0049;-0.3021;5.6689;-53.8934;35.3800 
412.653;-2.6646;0.1357;0.8501;-1.6479;6.5918;5.0049;-0.3461;5.8887;-53.8000;35.3800 
412.653;-2.6646;0.1357;0.8501;-1.6479;6.5918;5.0049;-0.3900;6.1084;-53.7012;35.3400 
412.653;-2.5615;0.1289;0.7295;-1.3428;3.6011;4.0894;-0.4395;6.3116;-53.6078;35.3400 
412.673;-2.5615;0.1289;0.7295;-1.3428;3.6011;4.0894;-0.4889;6.5149;-53.5089;35.3300 
412.673;-2.5615;0.1289;0.7295;-1.3428;3.6011;4.0894;-0.5383;6.7236;-53.4155;35.3300 
412.673;-2.5615;0.1289;0.7295;-1.3428;3.6011;4.0894;-0.5878;6.9269;-53.3167;35.4000 
412.673;-2.5615;0.1289;0.7295;-1.3428;3.6011;4.0894;-0.6372;7.1301;-53.2178;35.4000 
412.673;-2.5615;0.1289;0.7295;-1.3428;3.6011;4.0894;-0.6866;7.3334;-53.1189;35.3800 
412.673;-2.5615;0.1289;0.7295;-1.3428;3.6011;4.0894;-0.7306;7.5311;-53.0255;35.3800 
412.673;-2.5615;0.1289;0.7295;-1.3428;3.6011;4.0894;-0.7800;7.7344;-52.9266;35.3300 
412.673;-2.1313;0.0679;0.6309;0.4272;-3.3569;1.1597;-0.8240;7.8992;-52.8497;35.3300 
412.673;-2.1313;0.0679;0.6309;0.4272;-3.3569;1.1597;-0.8624;8.0640;-52.7673;35.3300 
412.682;-2.1313;0.0679;0.6309;0.4272;-3.3569;1.1597;-0.9064;8.2288;-52.6904;35.4000 
412.682;-2.1313;0.0679;0.6309;0.4272;-3.3569;1.1597;-0.9448;8.3936;-52.6135;35.4000 
412.693;-2.1313;0.0679;0.6309;0.4272;-3.3569;1.1597;-0.9888;8.5583;-52.5366;35.3700 
412.693;-2.1313;0.0679;0.6309;0.4272;-3.3569;1.1597;-1.0272;8.7177;-52.4542;35.3700 
412.702;-2.1313;0.0679;0.6309;0.4272;-3.3569;1.1597;-1.0657;8.8824;-52.3773;35.3600 
412.702;-2.1313;0.0679;0.6309;0.4272;-3.3569;1.1597;-1.1041;9.0472;-52.3004;35.3600 
412.712;-1.3218;0.0063;0.4355;4.0894;-12.8174;-2.4414;-1.1316;9.1571;-52.2455;35.3500 
412.712;-1.3218;0.0063;0.4355;4.0894;-12.8174;-2.4414;-1.1536;9.2670;-52.1906;35.3500 
412.772;-1.3218;0.0063;0.4355;4.0894;-12.8174;-2.4414;-1.1810;9.3713;-52.1356;35.4100 
412.772;-1.3218;0.0063;0.4355;4.0894;-12.8174;-2.4414;-1.2030;9.4812;-52.0807;35.4100 
412.792;-1.3218;0.0063;0.4355;4.0894;-12.8174;-2.4414;-1.2250;9.5911;-52.0258;35.3800 
412.792;-1.3218;0.0063;0.4355;4.0894;-12.8174;-2.4414;-1.2469;9.7009;-51.9708;35.3800 
412.802;-1.3218;0.0063;0.4355;4.0894;-12.8174;-2.4414;-1.2744;9.8108;-51.9159;35.3900 
412.802;-1.3218;0.0063;0.4355;4.0894;-12.8174;-2.4414;-1.2964;9.9152;-51.8665;35.3900 
412.802;-0.5156;-0.0352;0.2422;9.7656;-22.2168;-5.4932;-1.2854;9.9591;-51.8445;35.3300 
412.802;-0.5156;-0.0352;0.2422;9.7656;-22.2168;-5.4932;-1.2799;10.0031;-51.8280;35.3300 
412.812;-0.5156;-0.0352;0.2422;9.7656;-22.2168;-5.4932;-1.2689;10.0470;-51.8115;35.3300 
412.812;-0.5156;-0.0352;0.2422;9.7656;-22.2168;-5.4932;-1.2579;10.0909;-51.7950;35.3700 
412.862;-0.5156;-0.0352;0.2422;9.7656;-22.2168;-5.4932;-1.2524;10.1294;-51.7786;35.3700 
412.862;-0.5156;-0.0352;0.2422;9.7656;-22.2168;-5.4932;-1.2415;10.1733;-51.7676;35.3700 
412.882;-0.5156;-0.0352;0.2422;9.7656;-22.2168;-5.4932;-1.2305;10.2173;-51.7511;35.3700 
412.882;-0.5156;-0.0352;0.2422;9.7656;-22.2168;-5.4932;-1.2195;10.2612;-51.7346;35.3400 
412.882;0.0884;-0.0566;0.1021;16.4185;-30.0293;-7.3242;-1.2305;9.9811;-51.8170;35.3400 
412.892;0.0884;-0.0566;0.1021;16.4185;-30.0293;-7.3242;-1.2415;9.7009;-51.8994;35.3200 
412.892;0.0884;-0.0566;0.1021;16.4185;-30.0293;-7.3242;-1.2524;9.4208;-51.9763;35.3200 
412.912;0.0884;-0.0566;0.1021;16.4185;-30.0293;-7.3242;-1.2634;9.1406;-52.0587;35.3900 
412.912;0.0884;-0.0566;0.1021;16.4185;-30.0293;-7.3242;-1.2744;8.8605;-52.1356;35.3900 
412.922;0.0884;-0.0566;0.1021;16.4185;-30.0293;-7.3242;-1.2799;8.5803;-52.2125;35.3100 
412.922;0.0884;-0.0566;0.1021;16.4185;-30.0293;-7.3242;-1.2909;8.3057;-52.2894;35.3100 
412.932;0.4365;-0.0620;0.0298;22.2168;-34.9121;-8.0566;-1.1536;7.8772;-52.2675;35.3400 
412.932;0.4365;-0.0620;0.0298;22.2168;-34.9121;-8.0566;-1.0217;7.4542;-52.2455;35.3400 
412.932;0.4365;-0.0620;0.0298;22.2168;-34.9121;-8.0566;-0.8954;7.0313;-52.2235;35.3400 
412.932;0.4365;-0.0620;0.0298;22.2168;-34.9121;-8.0566;-0.7635;6.6083;-52.2070;35.3900 
412.942;0.4365;-0.0620;0.0298;22.2168;-34.9121;-8.0566;-0.6372;6.1853;-52.1906;35.3900 
412.942;0.4365;-0.0620;0.0298;22.2168;-34.9121;-8.0566;-0.5164;5.7623;-52.1796;35.3000 
412.942;0.4365;-0.0620;0.0298;22.2168;-34.9121;-8.0566;-0.3900;5.3394;-52.1686;35.3000 
412.942;0.4365;-0.0620;0.0298;22.2168;-34.9121;-8.0566;-0.2747;4.9219;-52.1576;35.4200 
412.942;0.5664;-0.0552;0.0181;26.0620;-36.3159;-8.1177;-0.0989;4.4934;-52.1301;35.4200 
412.942;0.5664;-0.0552;0.0181;26.0620;-36.3159;-8.1177;0.0659;4.0704;-52.1027;35.4000 
412.982;0.5664;-0.0552;0.0181;26.0620;-36.3159;-8.1177;0.2417;3.6420;-52.0752;35.4000 
412.982;0.5664;-0.0552;0.0181;26.0620;-36.3159;-8.1177;0.4120;3.2190;-52.0477;35.3300 
412.992;0.5664;-0.0552;0.0181;26.0620;-36.3159;-8.1177;0.5823;2.7960;-52.0258;35.3300 
412.992;0.5664;-0.0552;0.0181;26.0620;-36.3159;-8.1177;0.7471;2.3730;-52.0038;35.2800 
413.002;0.5664;-0.0552;0.0181;26.0620;-36.3159;-8.1177;0.9174;1.9501;-51.9818;35.2800 
413.002;0.5664;-0.0552;0.0181;26.0620;-36.3159;-8.1177;1.0822;1.5271;-51.9653;35.4000 
413.002;0.5537;-0.0420;0.0518;27.7710;-34.6069;-8.2397;1.2415;1.1206;-51.9653;35.4000 
413.002;0.5537;-0.0420;0.0518;27.7710;-34.6069;-8.2397;1.4063;0.7196;-51.9653;35.3200 
413.002;0.5537;-0.0420;0.0518;27.7710;-34.6069;-8.2397;1.5656;0.3131;-51.9653;35.3200 
413.002;0.5537;-0.0420;0.0518;27.7710;-34.6069;-8.2397;1.7249;-0.0824;-51.9708;35.3200 
413.012;0.5537;-0.0420;0.0518;27.7710;-34.6069;-8.2397;1.8842;-0.4889;-51.9763;35.3600 
413.012;0.5537;-0.0420;0.0518;27.7710;-34.6069;-8.2397;2.0435;-0.8899;-51.9818;35.3600 
413.032;0.5537;-0.0420;0.0518;27.7710;-34.6069;-8.2397;2.2028;-1.2854;-51.9873;35.3500 
413.032;0.5537;-0.0420;0.0518;27.7710;-34.6069;-8.2397;2.3621;-1.6864;-51.9928;35.3500 
413.032;0.5474;0.3770;0.5049;25.3906;-27.5879;-8.9111;2.5708;-1.9446;-52.0532;35.3900 
413.042;0.5474;0.3770;0.5049;25.3906;-27.5879;-8.9111;2.7740;-2.2028;-52.1191;35.3900 
413.042;0.5474;0.3770;0.5049;25.3906;-27.5879;-8.9111;2.9773;-2.4609;-52.1796;35.4000 
413.042;0.5474;0.3770;0.5049;25.3906;-27.5879;-8.9111;3.1860;-2.7136;-52.2400;35.4000 
413.042;0.5474;0.3770;0.5049;25.3906;-27.5879;-8.9111;3.3893;-2.9718;-52.3059;35.3200 
413.052;0.5474;0.3770;0.5049;25.3906;-27.5879;-8.9111;3.5980;-3.2245;-52.3663;35.3200 
413.052;0.5474;0.3770;0.5049;25.3906;-27.5879;-8.9111;3.8013;-3.4772;-52.4268;35.3500 
413.062;0.5474;0.3770;0.5049;25.3906;-27.5879;-8.9111;4.0100;-3.7244;-52.4927;35.3500 
413.062;0.3755;0.3706;0.6465;7.5684;-11.9019;-7.8125;4.1144;-3.8562;-52.5586;35.3400 
413.072;0.3755;0.3706;0.6465;7.5684;-11.9019;-7.8125;4.2242;-3.9880;-52.6190;35.3400 
413.072;0.3755;0.3706;0.6465;7.5684;-11.9019;-7.8125;4.3286;-4.1199;-52.6849;35.3900 
413.102;0.3755;0.3706;0.6465;7.5684;-11.9019;-7.8125;4.4330;-4.2462;-52.7509;35.3900 
413.102;0.3755;0.3706;0.6465;7.5684;-11.9019;-7.8125;4.5428;-4.3781;-52.8168;35.3900 
413.132;0.3755;0.3706;0.6465;7.5684;-11.9019;-7.8125;4.6472;-4.5044;-52.8827;35.4000 
413.132;0.3755;0.3706;0.6465;7.5684;-11.9019;-7.8125;4.7516;-4.6362;-52.9486;35.4000 
413.142;0.3755;0.3706;0.6465;7.5684;-11.9019;-7.8125;4.8615;-4.7626;-53.0145;35.3700 
413.142;0.4800;0.4653;1.1665;-33.2031;4.0894;-1.5869;4.7406;-4.7955;-53.0365;35.3700 
413.192;0.4800;0.4653;1.1665;-33.2031;4.0894;-1.5869;4.6198;-4.8230;-53.0640;35.3600 
413.192;0.4800;0.4653;1.1665;-33.2031;4.0894;-1.5869;4.4989;-4.8560;-53.0914;35.3600 
413.202;0.4800;0.4653;1.1665;-33.2031;4.0894;-1.5869;4.3835;-4.8834;-53.1189;35.3700 
413.202;0.4800;0.4653;1.1665;-33.2031;4.0894;-1.5869;4.2627;-4.9164;-53.1464;35.3700 
413.212;0.4800;0.4653;1.1665;-33.2031;4.0894;-1.5869;4.1473;-4.9438;-53.1683;35.2700 
413.212;0.4800;0.4653;1.1665;-33.2031;4.0894;-1.5869;4.0265;-4.9768;-53.1958;35.2700 
413.232;0.4800;0.4653;1.1665;-33.2031;4.0894;-1.5869;3.9111;-5.0043;-53.2233;35.3500 
413.232;0.3862;0.2441;1.1572;-87.5854;9.0332;8.9111;3.4937;-5.0043;-53.1903;35.3500 
413.252;0.3862;0.2441;1.1572;-87.5854;9.0332;8.9111;3.0762;-5.0043;-53.1519;35.3500 
413.252;0.3862;0.2441;1.1572;-87.5854;9.0332;8.9111;2.6587;-4.9988;-53.1134;35.3500 
413.292;0.3862;0.2441;1.1572;-87.5854;9.0332;8.9111;2.2467;-4.9988;-53.0804;35.3900 
413.292;0.3862;0.2441;1.1572;-87.5854;9.0332;8.9111;1.8292;-4.9933;-53.0420;35.3900 
413.302;0.3862;0.2441;1.1572;-87.5854;9.0332;8.9111;1.4172;-4.9878;-53.0090;35.3900 
413.332;0.3862;0.2441;1.1572;-87.5854;9.0332;8.9111;1.0052;-4.9878;-52.9706;35.3900 
413.332;0.3862;0.2441;1.1572;-87.5854;9.0332;8.9111;0.5988;-4.9823;-52.9376;35.3900 
413.362;0.5444;-0.2134;1.1279;-139.5264;-2.6855;20.9351;-0.1318;-5.0592;-52.8223;35.3500 
413.362;0.5444;-0.2134;1.1279;-139.5264;-2.6855;20.9351;-0.8679;-5.1306;-52.7069;35.3500 
413.432;0.5444;-0.2134;1.1279;-139.5264;-2.6855;20.9351;-1.5985;-5.2020;-52.5916;35.2800 
413.432;0.5444;-0.2134;1.1279;-139.5264;-2.6855;20.9351;-2.3236;-5.2734;-52.4707;35.2800 
413.452;0.5444;-0.2134;1.1279;-139.5264;-2.6855;20.9351;-3.0542;-5.3448;-52.3553;35.3500 
413.452;0.5444;-0.2134;1.1279;-139.5264;-2.6855;20.9351;-3.7793;-5.4108;-52.2400;35.3500 
413.452;0.5444;-0.2134;1.1279;-139.5264;-2.6855;20.9351;-4.4989;-5.4767;-52.1191;35.3500 
413.452;0.5444;-0.2134;1.1279;-139.5264;-2.6855;20.9351;-5.2185;-5.5426;-52.0038;35.3500 
413.452;0.6323;-0.4712;0.9082;-169.0674;-31.9214;30.3345;-6.1359;-5.7678;-51.8170;35.3400 
413.452;0.6323;-0.4712;0.9082;-169.0674;-31.9214;30.3345;-7.0477;-5.9930;-51.6248;35.3400 
413.452;0.6323;-0.4712;0.9082;-169.0674;-31.9214;30.3345;-7.9541;-6.2073;-51.4325;35.3400 
413.452;0.6323;-0.4712;0.9082;-169.0674;-31.9214;30.3345;-8.8660;-6.4270;-51.2347;35.3400 
413.462;0.6323;-0.4712;0.9082;-169.0674;-31.9214;30.3345;-9.7723;-6.6357;-51.0315;35.3400 
413.462;0.6323;-0.4712;0.9082;-169.0674;-31.9214;30.3345;-10.6787;-6.8445;-50.8337;35.3400 
413.472;0.6323;-0.4712;0.9082;-169.0674;-31.9214;30.3345;-11.5851;-7.0477;-50.6250;35.3400 
413.472;0.6323;-0.4712;0.9082;-169.0674;-31.9214;30.3345;-12.4860;-7.2510;-50.4163;35.4000 
413.492;0.7354;-0.5957;0.7114;-165.4663;-65.9790;33.9966;-13.4033;-7.6355;-50.1471;35.4000 
413.492;0.7354;-0.5957;0.7114;-165.4663;-65.9790;33.9966;-14.3207;-8.0145;-49.8724;35.3100 
413.502;0.7354;-0.5957;0.7114;-165.4663;-65.9790;33.9966;-15.2380;-8.3826;-49.5923;35.3100 
413.502;0.7354;-0.5957;0.7114;-165.4663;-65.9790;33.9966;-16.1499;-8.7506;-49.3066;35.3200 
413.512;0.7354;-0.5957;0.7114;-165.4663;-65.9790;33.9966;-17.0673;-9.1132;-49.0155;35.3200 
413.512;0.7354;-0.5957;0.7114;-165.4663;-65.9790;33.9966;-17.9846;-9.4702;-48.7189;35.3600 
413.512;0.7354;-0.5957;0.7114;-165.4663;-65.9790;33.9966;-18.9020;-9.8218;-48.4167;35.3600 
413.512;0.7354;-0.5957;0.7114;-165.4663;-65.9790;33.9966;-19.8193;-10.1678;-48.1091;35.3700 
413.522;0.7949;-0.5957;0.5542;-139.7095;-89.1724;34.3628;-20.6268;-10.6348;-47.7521;35.3700 
413.522;0.7949;-0.5957;0.5542;-139.7095;-89.1724;34.3628;-21.4343;-11.0962;-47.3895;35.3700 
413.632;0.7949;-0.5957;0.5542;-139.7095;-89.1724;34.3628;-22.2418;-11.5521;-47.0215;35.3700 
413.632;0.7949;-0.5957;0.5542;-139.7095;-89.1724;34.3628;-23.0548;-12.0026;-46.6425;35.3500 
413.632;0.7949;-0.5957;0.5542;-139.7095;-89.1724;34.3628;-23.8678;-12.4475;-46.2634;35.3500 
413.632;0.7949;-0.5957;0.5542;-139.7095;-89.1724;34.3628;-24.6863;-12.8815;-45.8734;35.3500 
413.652;0.7949;-0.5957;0.5542;-139.7095;-89.1724;34.3628;-25.5048;-13.3154;-45.4779;35.3500 
413.652;0.7949;-0.5957;0.5542;-139.7095;-89.1724;34.3628;-26.3232;-13.7384;-45.0769;35.3500 
413.652;0.7886;-0.5181;0.4375;-109.4360;-96.6187;36.2549;-26.9989;-14.1998;-44.6429;35.3300 
413.652;0.7886;-0.5181;0.4375;-109.4360;-96.6187;36.2549;-27.6801;-14.6558;-44.2035;35.3300 
413.652;0.7886;-0.5181;0.4375;-109.4360;-96.6187;36.2549;-28.3612;-15.1062;-43.7585;35.3500 
413.652;0.7886;-0.5181;0.4375;-109.4360;-96.6187;36.2549;-29.0424;-15.5511;-43.3081;35.3500 
413.652;0.7886;-0.5181;0.4375;-109.4360;-96.6187;36.2549;-29.7345;-15.9906;-42.8522;35.3500 
413.652;0.7886;-0.5181;0.4375;-109.4360;-96.6187;36.2549;-30.4266;-16.4191;-42.3962;35.3500 
413.652;0.7886;-0.5181;0.4375;-109.4360;-96.6187;36.2549;-31.1188;-16.8475;-41.9293;35.2400 
413.652;0.7886;-0.5181;0.4375;-109.4360;-96.6187;36.2549;-31.8164;-17.2650;-41.4624;35.2400 
413.652;0.7197;-0.4106;0.3481;-87.5854;-91.1865;42.8467;-32.4097;-17.6495;-40.9680;35.3700 
413.652;0.7197;-0.4106;0.3481;-87.5854;-91.1865;42.8467;-33.0029;-18.0231;-40.4791;35.3700 
413.652;0.7197;-0.4106;0.3481;-87.5854;-91.1865;42.8467;-33.6017;-18.3966;-39.9792;35.3700 
413.652;0.7197;-0.4106;0.3481;-87.5854;-91.1865;42.8467;-34.2004;-18.7592;-39.4794;35.3700 
413.652;0.7197;-0.4106;0.3481;-87.5854;-91.1865;42.8467;-34.8047;-19.1217;-38.9795;35.4000 
413.652;0.7197;-0.4106;0.3481;-87.5854;-91.1865;42.8467;-35.4089;-19.4733;-38.4741;35.4000 
413.652;0.7197;-0.4106;0.3481;-87.5854;-91.1865;42.8467;-36.0187;-19.8248;-37.9633;35.4000 
413.652;0.7197;-0.4106;0.3481;-87.5854;-91.1865;42.8467;-36.6339;-20.1654;-37.4469;35.3200 
413.652;0.6011;-0.3052;0.2646;-81.1157;-79.2847;55.0537;-37.2162;-20.4236;-36.9196;35.3200 
413.692;0.6011;-0.3052;0.2646;-81.1157;-79.2847;55.0537;-37.7985;-20.6818;-36.3867;35.3500 
413.692;0.6011;-0.3052;0.2646;-81.1157;-79.2847;55.0537;-38.3862;-20.9290;-35.8539;35.3500 
413.692;0.6011;-0.3052;0.2646;-81.1157;-79.2847;55.0537;-38.9740;-21.1707;-35.3156;35.3400 
413.692;0.6011;-0.3052;0.2646;-81.1157;-79.2847;55.0537;-39.5673;-21.4069;-34.7827;35.3400 
413.702;0.6011;-0.3052;0.2646;-81.1157;-79.2847;55.0537;-40.1605;-21.6376;-34.2444;35.3600 
413.702;0.6011;-0.3052;0.2646;-81.1157;-79.2847;55.0537;-40.7538;-21.8683;-33.7061;35.3600 
413.702;0.6011;-0.3052;0.2646;-81.1157;-79.2847;55.0537;-41.3525;-22.0880;-33.1622;35.4000 
413.722;0.4438;-0.2197;0.1621;-91.4307;-67.6880;71.8384;-42.0172;-22.2089;-32.5909;35.4000 
413.722;0.4438;-0.2197;0.1621;-91.4307;-67.6880;71.8384;-42.6819;-22.3242;-32.0197;35.3900 
413.722;0.4438;-0.2197;0.1621;-91.4307;-67.6880;71.8384;-43.3466;-22.4396;-31.4484;35.3900 
413.722;0.4438;-0.2197;0.1621;-91.4307;-67.6880;71.8384;-44.0112;-22.5439;-30.8716;35.3900 
413.742;0.4438;-0.2197;0.1621;-91.4307;-67.6880;71.8384;-44.6759;-22.6428;-30.3058;35.3900 
413.742;0.4438;-0.2197;0.1621;-91.4307;-67.6880;71.8384;-45.3406;-22.7307;-29.7345;35.3400 
413.742;0.4438;-0.2197;0.1621;-91.4307;-67.6880;71.8384;-46.0052;-22.8186;-29.1632;35.3400 
413.742;0.4438;-0.2197;0.1621;-91.4307;-67.6880;71.8384;-46.6699;-22.9010;-28.5974;35.3400 
413.862;0.2788;-0.1118;0.0142;-116.5161;-61.2793;91.0034;-47.4994;-22.9175;-27.9602;35.2800 
413.862;0.2788;-0.1118;0.0142;-116.5161;-61.2793;91.0034;-48.3289;-22.9285;-27.3340;35.2800 
413.862;0.2788;-0.1118;0.0142;-116.5161;-61.2793;91.0034;-49.1583;-22.9340;-26.7078;35.3800 
413.862;0.2788;-0.1118;0.0142;-116.5161;-61.2793;91.0034;-49.9878;-22.9285;-26.0815;35.3800 
413.872;0.2788;-0.1118;0.0142;-116.5161;-61.2793;91.0034;-50.8118;-22.9175;-25.4663;35.3200 
413.872;0.2788;-0.1118;0.0142;-116.5161;-61.2793;91.0034;-51.6357;-22.8955;-24.8511;35.3200 
413.872;0.2788;-0.1118;0.0142;-116.5161;-61.2793;91.0034;-52.4597;-22.8625;-24.2413;35.4100 
413.872;0.2788;-0.1118;0.0142;-116.5161;-61.2793;91.0034;-53.2837;-22.8296;-23.6371;35.4100 
413.872;0.2324;-0.3496;-0.3022;-155.0293;-63.3545;107.2388;-54.4867;-22.6648;-22.9230;35.3600 
413.872;0.2324;-0.3496;-0.3022;-155.0293;-63.3545;107.2388;-55.6842;-22.4945;-22.2144;35.3600 
413.872;0.2324;-0.3496;-0.3022;-155.0293;-63.3545;107.2388;-56.8762;-22.3022;-21.5112;35.3500 
413.872;0.2324;-0.3496;-0.3022;-155.0293;-63.3545;107.2388;-58.0573;-22.1045;-20.8136;35.3500 
413.872;0.2324;-0.3496;-0.3022;-155.0293;-63.3545;107.2388;-59.2328;-21.8903;-20.1270;35.3600 
413.872;0.2324;-0.3496;-0.3022;-155.0293;-63.3545;107.2388;-60.4028;-21.6650;-19.4513;35.3600 
413.872;0.2324;-0.3496;-0.3022;-155.0293;-63.3545;107.2388;-61.5619;-21.4288;-18.7811;35.3200 
413.872;0.2324;-0.3496;-0.3022;-155.0293;-63.3545;107.2388;-62.7155;-21.1816;-18.1219;35.3200 
413.872;0.0825;-0.4556;-0.5146;-194.3359;-71.7163;108.2153;-64.1272;-20.8521;-17.4518;35.3200 
413.872;0.0825;-0.4556;-0.5146;-194.3359;-71.7163;108.2153;-65.5225;-20.5060;-16.7981;35.3700 
413.872;0.0825;-0.4556;-0.5146;-194.3359;-71.7163;108.2153;-66.9067;-20.1489;-16.1554;35.3700 
413.872;0.0825;-0.4556;-0.5146;-194.3359;-71.7163;108.2153;-68.2800;-19.7809;-15.5237;35.3100 
413.872;0.0825;-0.4556;-0.5146;-194.3359;-71.7163;108.2153;-69.6478;-19.3964;-14.9030;35.3100 
413.872;0.0825;-0.4556;-0.5146;-194.3359;-71.7163;108.2153;-70.9991;-18.9954;-14.2987;35.3000 
413.872;0.0825;-0.4556;-0.5146;-194.3359;-71.7163;108.2153;-72.3395;-18.5889;-13.7054;35.3000 
413.872;0.0825;-0.4556;-0.5146;-194.3359;-71.7163;108.2153;-73.6688;-18.1659;-13.1287;35.3400 
413.872;0.1533;-0.8071;-0.7373;-213.0737;-80.8716;84.6558;-75.0696;-17.8638;-12.5464;35.3400 
413.872;0.1533;-0.8071;-0.7373;-213.0737;-80.8716;84.6558;-76.4648;-17.5452;-11.9696;35.3800 
413.872;0.1533;-0.8071;-0.7373;-213.0737;-80.8716;84.6558;-77.8436;-17.2156;-11.4093;35.3800 
413.872;0.1533;-0.8071;-0.7373;-213.0737;-80.8716;84.6558;-79.2169;-16.8750;-10.8600;35.3400 
413.872;0.1533;-0.8071;-0.7373;-213.0737;-80.8716;84.6558;-80.5792;-16.5234;-10.3162;35.3400 
413.872;0.1533;-0.8071;-0.7373;-213.0737;-80.8716;84.6558;-81.9305;-16.1609;-9.7888;35.3100 
413.872;0.1533;-0.8071;-0.7373;-213.0737;-80.8716;84.6558;-83.2764;-15.7874;-9.2725;35.3100 
413.872;0.1533;-0.8071;-0.7373;-213.0737;-80.8716;84.6558;-84.6112;-15.4028;-8.7671;35.3100 
413.872;0.1279;-0.9707;-0.7539;-200.9888;-86.4258;40.5273;-85.8636;-15.2216;-8.2672;35.3500 
413.872;0.1279;-0.9707;-0.7539;-200.9888;-86.4258;40.5273;-87.1106;-15.0293;-7.7728;35.3500 
413.882;0.1279;-0.9707;-0.7539;-200.9888;-86.4258;40.5273;-88.3521;-14.8260;-7.2894;35.3500 
413.882;0.1279;-0.9707;-0.7539;-200.9888;-86.4258;40.5273;-89.5880;-14.6173;-6.8060;35.3500 
413.882;0.1279;-0.9707;-0.7539;-200.9888;-86.4258;40.5273;-90.8185;-14.3976;-6.3336;35.3400 
413.882;0.1279;-0.9707;-0.7539;-200.9888;-86.4258;40.5273;-92.0435;-14.1669;-5.8612;35.3400 
413.882;0.1279;-0.9707;-0.7539;-200.9888;-86.4258;40.5273;-93.2574;-13.9252;-5.4053;35.3500 
413.882;0.1279;-0.9707;-0.7539;-200.9888;-86.4258;40.5273;-94.4659;-13.6780;-4.9493;35.3500 
413.882;0.1914;-0.9585;-0.6167;-154.9683;-84.7778;-11.1694;-95.4272;-13.6890;-4.4769;35.3600 
413.882;0.1914;-0.9585;-0.6167;-154.9683;-84.7778;-11.1694;-96.3885;-13.6945;-4.0100;35.3600 
413.882;0.1914;-0.9585;-0.6167;-154.9683;-84.7778;-11.1694;-97.3444;-13.6945;-3.5376;35.3500 
413.882;0.1914;-0.9585;-0.6167;-154.9683;-84.7778;-11.1694;-98.3002;-13.6890;-3.0707;35.3500 
413.882;0.1914;-0.9585;-0.6167;-154.9683;-84.7778;-11.1694;-99.2505;-13.6725;-2.6038;35.2900 
413.882;0.1914;-0.9585;-0.6167;-154.9683;-84.7778;-11.1694;-100.1953;-13.6450;-2.1368;35.2900 
413.882;0.1914;-0.9585;-0.6167;-154.9683;-84.7778;-11.1694;-101.1401;-13.6176;-1.6699;35.3400 
413.892;0.1914;-0.9585;-0.6167;-154.9683;-84.7778;-11.1694;-102.0795;-13.5791;-1.2030;35.3400 
413.892;0.2866;-0.8730;-0.4243;-88.3179;-76.9043;-49.2554;-102.6672;-13.7494;-0.7306;35.3400 
413.892;0.2866;-0.8730;-0.4243;-88.3179;-76.9043;-49.2554;-103.2495;-13.9142;-0.2527;35.4200 
413.892;0.2866;-0.8730;-0.4243;-88.3179;-76.9043;-49.2554;-103.8318;-14.0735;0.2252;35.4200 
413.892;0.2866;-0.8730;-0.4243;-88.3179;-76.9043;-49.2554;-104.4196;-14.2273;0.7031;35.3300 
413.892;0.2866;-0.8730;-0.4243;-88.3179;-76.9043;-49.2554;-105.0018;-14.3811;1.1865;35.3300 
413.892;0.2866;-0.8730;-0.4243;-88.3179;-76.9043;-49.2554;-105.5841;-14.5239;1.6699;35.3500 
413.892;0.2866;-0.8730;-0.4243;-88.3179;-76.9043;-49.2554;-106.1719;-14.6667;2.1533;35.3500 
413.952;0.2866;-0.8730;-0.4243;-88.3179;-76.9043;-49.2554;-106.7542;-14.7986;2.6422;35.3700 
413.952;0.3652;-0.7280;-0.2417;-25.8789;-67.1997;-57.2510;-106.9904;-15.0073;3.0981;35.3700 
413.952;0.3652;-0.7280;-0.2417;-25.8789;-67.1997;-57.2510;-107.2266;-15.2106;3.5596;35.3700 
413.952;0.3652;-0.7280;-0.2417;-25.8789;-67.1997;-57.2510;-107.4683;-15.4138;4.0210;35.3700 
413.962;0.3652;-0.7280;-0.2417;-25.8789;-67.1997;-57.2510;-107.7100;-15.6171;4.4824;35.3700 
413.962;0.3652;-0.7280;-0.2417;-25.8789;-67.1997;-57.2510;-107.9517;-15.8148;4.9438;35.3700 
413.962;0.3652;-0.7280;-0.2417;-25.8789;-67.1997;-57.2510;-108.1934;-16.0126;5.4053;35.3500 
413.962;0.3652;-0.7280;-0.2417;-25.8789;-67.1997;-57.2510;-108.4351;-16.2048;5.8722;35.3500 
413.962;0.3652;-0.7280;-0.2417;-25.8789;-67.1997;-57.2510;-108.6823;-16.3971;6.3336;35.3800 
413.962;0.4209;-0.8315;-0.1611;18.2495;-58.4106;-34.9121;-108.6658;-16.4960;6.7126;35.3800 
413.962;0.4209;-0.8315;-0.1611;18.2495;-58.4106;-34.9121;-108.6438;-16.5948;7.0862;35.3800 
413.962;0.4209;-0.8315;-0.1611;18.2495;-58.4106;-34.9121;-108.6273;-16.6937;7.4652;35.3300 
413.962;0.4209;-0.8315;-0.1611;18.2495;-58.4106;-34.9121;-108.6108;-16.7926;7.8387;35.3300 
413.962;0.4209;-0.8315;-0.1611;18.2495;-58.4106;-34.9121;-108.5999;-16.8915;8.2123;35.4000 
413.962;0.4209;-0.8315;-0.1611;18.2495;-58.4106;-34.9121;-108.5834;-16.9904;8.5858;35.4000 
414.062;0.4209;-0.8315;-0.1611;18.2495;-58.4106;-34.9121;-108.5724;-17.0892;8.9594;35.3400 
414.062;0.4209;-0.8315;-0.1611;18.2495;-58.4106;-34.9121;-108.5559;-17.1881;9.3329;35.3400 
414.062;0.4077;-0.7861;-0.0693;40.8325;-51.0254;4.3335;-108.3856;-17.1167;9.6021;35.3600 
414.062;0.4077;-0.7861;-0.0693;40.8325;-51.0254;4.3335;-108.2153;-17.0453;9.8657;35.3600 
414.072;0.4077;-0.7861;-0.0693;40.8325;-51.0254;4.3335;-108.0396;-16.9739;10.1294;35.3900 
414.072;0.4077;-0.7861;-0.0693;40.8325;-51.0254;4.3335;-107.8693;-16.9025;10.3931;35.3900 
414.072;0.4077;-0.7861;-0.0693;40.8325;-51.0254;4.3335;-107.6990;-16.8365;10.6567;35.3400 
414.072;0.4077;-0.7861;-0.0693;40.8325;-51.0254;4.3335;-107.5287;-16.7706;10.9204;35.3400 
414.072;0.4077;-0.7861;-0.0693;40.8325;-51.0254;4.3335;-107.3584;-16.6992;11.1841;35.3800 
414.072;0.4077;-0.7861;-0.0693;40.8325;-51.0254;4.3335;-107.1881;-16.6333;11.4478;35.3800 
414.072;0.3662;-1.0405;-0.0767;44.7388;-43.5791;41.8091;-106.9739;-16.3806;11.6016;35.3700 
414.072;0.3662;-1.0405;-0.0767;44.7388;-43.5791;41.8091;-106.7542;-16.1279;11.7609;35.3700 
414.072;0.3662;-1.0405;-0.0767;44.7388;-43.5791;41.8091;-106.5344;-15.8752;11.9202;35.3700 
414.072;0.3662;-1.0405;-0.0767;44.7388;-43.5791;41.8091;-106.3202;-15.6226;12.0795;35.3200 
414.072;0.3662;-1.0405;-0.0767;44.7388;-43.5791;41.8091;-106.1005;-15.3699;12.2443;35.3200 
414.072;0.3662;-1.0405;-0.0767;44.7388;-43.5791;41.8091;-105.8862;-15.1227;12.4036;35.4000 
414.072;0.3662;-1.0405;-0.0767;44.7388;-43.5791;41.8091;-105.6665;-14.8755;12.5629;35.4000 
414.072;0.3662;-1.0405;-0.0767;44.7388;-43.5791;41.8091;-105.4523;-14.6283;12.7277;35.3800 
414.072;0.2769;-1.0645;-0.0483;36.5601;-34.7290;63.4155;-105.2490;-14.2822;12.8101;35.3800 
414.072;0.2769;-1.0645;-0.0483;36.5601;-34.7290;63.4155;-105.0513;-13.9307;12.8925;35.3400 
414.072;0.2769;-1.0645;-0.0483;36.5601;-34.7290;63.4155;-104.8535;-13.5846;12.9803;35.3400 
414.072;0.2769;-1.0645;-0.0483;36.5601;-34.7290;63.4155;-104.6558;-13.2385;13.0627;35.3700 
414.072;0.2769;-1.0645;-0.0483;36.5601;-34.7290;63.4155;-104.4580;-12.8925;13.1506;35.3700 
414.072;0.2769;-1.0645;-0.0483;36.5601;-34.7290;63.4155;-104.2603;-12.5464;13.2385;35.3100 
414.072;0.2769;-1.0645;-0.0483;36.5601;-34.7290;63.4155;-104.0625;-12.2058;13.3264;35.3100 
414.072;0.2769;-1.0645;-0.0483;36.5601;-34.7290;63.4155;-103.8647;-11.8652;13.4198;35.3600 
414.072;0.2109;-1.1270;-0.0317;23.3765;-24.0479;63.8428;-103.7219;-11.5247;13.4528;35.3600 
414.072;0.2109;-1.1270;-0.0317;23.3765;-24.0479;63.8428;-103.5791;-11.1841;13.4857;35.3600 
414.072;0.2109;-1.1270;-0.0317;23.3765;-24.0479;63.8428;-103.4308;-10.8435;13.5187;35.3800 
414.072;0.2109;-1.1270;-0.0317;23.3765;-24.0479;63.8428;-103.2880;-10.5084;13.5571;35.3800 
414.072;0.2109;-1.1270;-0.0317;23.3765;-24.0479;63.8428;-103.1451;-10.1733;13.5956;35.3900 
414.072;0.2109;-1.1270;-0.0317;23.3765;-24.0479;63.8428;-103.0023;-9.8383;13.6285;35.3900 
414.072;0.2109;-1.1270;-0.0317;23.3765;-24.0479;63.8428;-102.8595;-9.5032;13.6670;35.3500 
414.072;0.2109;-1.1270;-0.0317;23.3765;-24.0479;63.8428;-102.7167;-9.1681;13.7054;35.3500 
414.082;0.1631;-1.1279;-0.0195;10.3149;-13.0615;48.0347;-102.6343;-8.9209;13.7054;35.3400 
414.082;0.1631;-1.1279;-0.0195;10.3149;-13.0615;48.0347;-102.5464;-8.6737;13.7109;35.3400 
414.082;0.1631;-1.1279;-0.0195;10.3149;-13.0615;48.0347;-102.4640;-8.4210;13.7109;35.3600 
414.082;0.1631;-1.1279;-0.0195;10.3149;-13.0615;48.0347;-102.3816;-8.1738;13.7109;35.3600 
414.082;0.1631;-1.1279;-0.0195;10.3149;-13.0615;48.0347;-102.2937;-7.9266;13.7164;35.3500 
414.082;0.1631;-1.1279;-0.0195;10.3149;-13.0615;48.0347;-102.2113;-7.6849;13.7219;35.3500 
414.082;0.1631;-1.1279;-0.0195;10.3149;-13.0615;48.0347;-102.1289;-7.4377;13.7274;35.3300 
414.082;0.1631;-1.1279;-0.0195;10.3149;-13.0615;48.0347;-102.0465;-7.1906;13.7274;35.3300 
414.082;0.1426;-1.0977;-0.0103;0.5493;-4.0894;26.9775;-102.0081;-7.0587;13.7109;35.3400 
414.082;0.1426;-1.0977;-0.0103;0.5493;-4.0894;26.9775;-101.9696;-6.9269;13.6945;35.3400 
414.082;0.1426;-1.0977;-0.0103;0.5493;-4.0894;26.9775;-101.9312;-6.7896;13.6780;35.3400 
414.082;0.1426;-1.0977;-0.0103;0.5493;-4.0894;26.9775;-101.8927;-6.6577;13.6560;35.3000 
414.082;0.1426;-1.0977;-0.0103;0.5493;-4.0894;26.9775;-101.8542;-6.5259;13.6395;35.3000 
414.092;0.1426;-1.0977;-0.0103;0.5493;-4.0894;26.9775;-101.8213;-6.3940;13.6230;35.3200 
414.092;0.1426;-1.0977;-0.0103;0.5493;-4.0894;26.9775;-101.7828;-6.2622;13.6066;35.3200 
414.092;0.1426;-1.0977;-0.0103;0.5493;-4.0894;26.9775;-101.7444;-6.1304;13.5901;35.4500 
414.092;0.1392;-1.0615;-0.0063;-4.7607;1.6479;8.9722;-101.7334;-6.0919;13.5626;35.4500 
414.102;0.1392;-1.0615;-0.0063;-4.7607;1.6479;8.9722;-101.7224;-6.0590;13.5352;35.3400 
414.102;0.1392;-1.0615;-0.0063;-4.7607;1.6479;8.9722;-101.7114;-6.0205;13.5077;35.3400 
414.112;0.1392;-1.0615;-0.0063;-4.7607;1.6479;8.9722;-101.6949;-5.9821;13.4802;35.4300 
414.112;0.1392;-1.0615;-0.0063;-4.7607;1.6479;8.9722;-101.6840;-5.9436;13.4528;35.4300 
414.112;0.1392;-1.0615;-0.0063;-4.7607;1.6479;8.9722;-101.6730;-5.9106;13.4253;35.3600 
414.112;0.1392;-1.0615;-0.0063;-4.7607;1.6479;8.9722;-101.6620;-5.8722;13.4033;35.3600 
414.132;0.1392;-1.0615;-0.0063;-4.7607;1.6479;8.9722;-101.6510;-5.8392;13.3759;35.4200 
414.132;0.1465;-1.0308;-0.0068;-6.4087;4.2725;-2.8076;-101.6455;-5.8612;13.3484;35.4200 
414.132;0.1465;-1.0308;-0.0068;-6.4087;4.2725;-2.8076;-101.6455;-5.8887;13.3209;35.3300 
414.132;0.1465;-1.0308;-0.0068;-6.4087;4.2725;-2.8076;-101.6400;-5.9161;13.2935;35.3300 
414.132;0.1465;-1.0308;-0.0068;-6.4087;4.2725;-2.8076;-101.6345;-5.9381;13.2660;35.3300 
414.132;0.1465;-1.0308;-0.0068;-6.4087;4.2725;-2.8076;-101.6345;-5.9656;13.2385;35.3700 
414.132;0.1465;-1.0308;-0.0068;-6.4087;4.2725;-2.8076;-101.6290;-5.9875;13.2111;35.3700 
414.132;0.1465;-1.0308;-0.0068;-6.4087;4.2725;-2.8076;-101.6235;-6.0150;13.1836;35.4100 
414.132;0.1465;-1.0308;-0.0068;-6.4087;4.2725;-2.8076;-101.6235;-6.0425;13.1561;35.4100 
414.132;0.1572;-1.0103;-0.0083;-5.7373;4.5776;-8.3618;-101.6180;-6.0919;13.1342;35.3100 
414.132;0.1572;-1.0103;-0.0083;-5.7373;4.5776;-8.3618;-101.6125;-6.1469;13.1177;35.3100 
414.132;0.1572;-1.0103;-0.0083;-5.7373;4.5776;-8.3618;-101.6071;-6.2018;13.0957;35.3400 
414.132;0.1572;-1.0103;-0.0083;-5.7373;4.5776;-8.3618;-101.5961;-6.2567;13.0682;35.3400 
414.132;0.1572;-1.0103;-0.0083;-5.7373;4.5776;-8.3618;-101.5906;-6.3116;13.0463;35.3400 
414.132;0.1572;-1.0103;-0.0083;-5.7373;4.5776;-8.3618;-101.5851;-6.3666;13.0243;35.3400 
414.152;0.1572;-1.0103;-0.0083;-5.7373;4.5776;-8.3618;-101.5796;-6.4215;13.0023;35.4000 
414.152;0.1572;-1.0103;-0.0083;-5.7373;4.5776;-8.3618;-101.5741;-6.4709;12.9803;35.4000 
414.172;0.1675;-1.0005;-0.0107;-3.9063;3.5400;-9.2163;-101.5631;-6.5314;12.9639;35.3700 
414.172;0.1675;-1.0005;-0.0107;-3.9063;3.5400;-9.2163;-101.5466;-6.5918;12.9474;35.3700 
414.172;0.1675;-1.0005;-0.0107;-3.9063;3.5400;-9.2163;-101.5356;-6.6467;12.9309;35.3500 
414.172;0.1675;-1.0005;-0.0107;-3.9063;3.5400;-9.2163;-101.5192;-6.7072;12.9199;35.3500 
414.172;0.1675;-1.0005;-0.0107;-3.9063;3.5400;-9.2163;-101.5027;-6.7621;12.9034;35.3500 
414.172;0.1675;-1.0005;-0.0107;-3.9063;3.5400;-9.2163;-101.4917;-6.8225;12.8870;35.3500 
414.272;0.1675;-1.0005;-0.0107;-3.9063;3.5400;-9.2163;-101.4752;-6.8774;12.8705;35.3500 
414.272;0.1675;-1.0005;-0.0107;-3.9063;3.5400;-9.2163;-101.4642;-6.9324;12.8595;35.3500 
414.282;0.1748;-0.9985;-0.0132;-1.9531;2.0752;-7.3853;-101.4423;-6.9818;12.8485;35.3500 
414.282;0.1748;-0.9985;-0.0132;-1.9531;2.0752;-7.3853;-101.4203;-7.0313;12.8375;35.3500 
414.282;0.1748;-0.9985;-0.0132;-1.9531;2.0752;-7.3853;-101.3983;-7.0752;12.8320;35.3500 
414.282;0.1748;-0.9985;-0.0132;-1.9531;2.0752;-7.3853;-101.3763;-7.1246;12.8210;35.3300 
414.282;0.1748;-0.9985;-0.0132;-1.9531;2.0752;-7.3853;-101.3544;-7.1741;12.8156;35.3300 
414.282;0.1748;-0.9985;-0.0132;-1.9531;2.0752;-7.3853;-101.3324;-7.2180;12.8046;35.3500 
414.282;0.1748;-0.9985;-0.0132;-1.9531;2.0752;-7.3853;-101.3104;-7.2675;12.7991;35.3500 
414.282;0.1748;-0.9985;-0.0132;-1.9531;2.0752;-7.3853;-101.2885;-7.3114;12.7881;35.4300 
414.282;0.1792;-1.0020;-0.0142;-0.4272;0.7935;-4.5166;-101.2555;-7.3444;12.7881;35.4300 
414.282;0.1792;-1.0020;-0.0142;-0.4272;0.7935;-4.5166;-101.2280;-7.3773;12.7826;35.3000 
414.282;0.1792;-1.0020;-0.0142;-0.4272;0.7935;-4.5166;-101.2006;-7.4048;12.7771;35.3000 
414.282;0.1792;-1.0020;-0.0142;-0.4272;0.7935;-4.5166;-101.1731;-7.4377;12.7716;35.3000 
414.282;0.1792;-1.0020;-0.0142;-0.4272;0.7935;-4.5166;-101.1401;-7.4707;12.7661;35.3900 
414.282;0.1792;-1.0020;-0.0142;-0.4272;0.7935;-4.5166;-101.1127;-7.5037;12.7606;35.3900 
414.292;0.1792;-1.0020;-0.0142;-0.4272;0.7935;-4.5166;-101.0852;-7.5311;12.7551;35.2900 
414.302;0.1792;-1.0020;-0.0142;-0.4272;0.7935;-4.5166;-101.0577;-7.5641;12.7496;35.2900 
414.302;0.1802;-1.0063;-0.0151;0.4272;-0.1221;-1.8921;-101.0248;-7.5806;12.7441;35.3400 
414.302;0.1802;-1.0063;-0.0151;0.4272;-0.1221;-1.8921;-100.9918;-7.5970;12.7441;35.3400 
414.302;0.1802;-1.0063;-0.0151;0.4272;-0.1221;-1.8921;-100.9589;-7.6190;12.7386;35.3300 
414.312;0.1802;-1.0063;-0.0151;0.4272;-0.1221;-1.8921;-100.9314;-7.6355;12.7332;35.3300 
414.312;0.1802;-1.0063;-0.0151;0.4272;-0.1221;-1.8921;-100.8984;-7.6520;12.7332;35.4100 
414.322;0.1802;-1.0063;-0.0151;0.4272;-0.1221;-1.8921;-100.8655;-7.6685;12.7277;35.4100 
414.322;0.1802;-1.0063;-0.0151;0.4272;-0.1221;-1.8921;-100.8325;-7.6849;12.7277;35.3900 
414.322;0.1802;-1.0063;-0.0151;0.4272;-0.1221;-1.8921;-100.7996;-7.7014;12.7222;35.3900 
414.322;0.1797;-1.0107;-0.0151;0.7935;-0.6104;0.0000;-100.7666;-7.7124;12.7222;35.3100 
414.322;0.1797;-1.0107;-0.0151;0.7935;-0.6104;0.0000;-100.7336;-7.7179;12.7167;35.3100 
414.322;0.1797;-1.0107;-0.0151;0.7935;-0.6104;0.0000;-100.7007;-7.7234;12.7167;35.3900 
414.332;0.1797;-1.0107;-0.0151;0.7935;-0.6104;0.0000;-100.6677;-7.7289;12.7112;35.3900 
414.332;0.1797;-1.0107;-0.0151;0.7935;-0.6104;0.0000;-100.6403;-7.7399;12.7112;35.3900 
414.332;0.1797;-1.0107;-0.0151;0.7935;-0.6104;0.0000;-100.6073;-7.7454;12.7057;35.3700 
414.332;0.1797;-1.0107;-0.0151;0.7935;-0.6104;0.0000;-100.5743;-7.7509;12.7057;35.3700 
414.352;0.1797;-1.0107;-0.0151;0.7935;-0.6104;0.0000;-100.5414;-7.7563;12.7057;35.3500 
414.352;0.1782;-1.0142;-0.0146;0.7935;-0.7324;0.9155;-100.5084;-7.7618;12.7002;35.3500 
414.362;0.1782;-1.0142;-0.0146;0.7935;-0.7324;0.9155;-100.4755;-7.7618;12.7002;35.2900 
414.362;0.1782;-1.0142;-0.0146;0.7935;-0.7324;0.9155;-100.4425;-7.7618;12.6947;35.2900 
414.531;0.1782;-1.0142;-0.0146;0.7935;-0.7324;0.9155;-100.4095;-7.7673;12.6947;35.4200 
414.531;0.1782;-1.0142;-0.0146;0.7935;-0.7324;0.9155;-100.3766;-7.7673;12.6892;35.4200 
414.541;0.1782;-1.0142;-0.0146;0.7935;-0.7324;0.9155;-100.3436;-7.7728;12.6892;35.3300 
414.541;0.1782;-1.0142;-0.0146;0.7935;-0.7324;0.9155;-100.3162;-7.7728;12.6837;35.3300 
414.541;0.1782;-1.0142;-0.0146;0.7935;-0.7324;0.9155;-100.2832;-7.7728;12.6837;35.3400 
414.541;0.1772;-1.0161;-0.0142;0.5493;-0.6104;1.2207;-100.2502;-7.7728;12.6782;35.3400 
414.541;0.1772;-1.0161;-0.0142;0.5493;-0.6104;1.2207;-100.2228;-7.7728;12.6727;35.3500 
414.541;0.1772;-1.0161;-0.0142;0.5493;-0.6104;1.2207;-100.1898;-7.7728;12.6727;35.3500 
414.541;0.1772;-1.0161;-0.0142;0.5493;-0.6104;1.2207;-100.1624;-7.7728;12.6672;35.3500 
414.541;0.1772;-1.0161;-0.0142;0.5493;-0.6104;1.2207;-100.1294;-7.7728;12.6672;35.3500 
414.541;0.1772;-1.0161;-0.0142;0.5493;-0.6104;1.2207;-100.1019;-7.7783;12.6617;35.3500 
414.541;0.1772;-1.0161;-0.0142;0.5493;-0.6104;1.2207;-100.0690;-7.7783;12.6617;35.3300 
414.541;0.1772;-1.0161;-0.0142;0.5493;-0.6104;1.2207;-100.0415;-7.7783;12.6563;35.3300 
414.541;0.1763;-1.0166;-0.0142;0.2441;-0.4272;1.0376;-100.0085;-7.7783;12.6508;35.3400 
414.541;0.1763;-1.0166;-0.0142;0.2441;-0.4272;1.0376;-99.9811;-7.7783;12.6508;35.3400 
414.541;0.1763;-1.0166;-0.0142;0.2441;-0.4272;1.0376;-99.9536;-7.7783;12.6453;35.3200 
414.541;0.1763;-1.0166;-0.0142;0.2441;-0.4272;1.0376;-99.9261;-7.7783;12.6398;35.3200 
414.541;0.1763;-1.0166;-0.0142;0.2441;-0.4272;1.0376;-99.8987;-7.7838;12.6343;35.2800 
414.541;0.1763;-1.0166;-0.0142;0.2441;-0.4272;1.0376;-99.8712;-7.7838;12.6343;35.2800 
414.541;0.1763;-1.0166;-0.0142;0.2441;-0.4272;1.0376;-99.8383;-7.7838;12.6288;35.3500 
414.541;0.1763;-1.0166;-0.0142;0.2441;-0.4272;1.0376;-99.8108;-7.7838;12.6233;35.3500 
414.541;0.1758;-1.0166;-0.0142;0.0610;-0.1831;0.6714;-99.7833;-7.7893;12.6178;35.3800 
414.541;0.1758;-1.0166;-0.0142;0.0610;-0.1831;0.6714;-99.7614;-7.7893;12.6178;35.3800 
414.541;0.1758;-1.0166;-0.0142;0.0610;-0.1831;0.6714;-99.7339;-7.7948;12.6123;35.3900 
414.541;0.1758;-1.0166;-0.0142;0.0610;-0.1831;0.6714;-99.7064;-7.7948;12.6068;35.3900 
414.541;0.1758;-1.0166;-0.0142;0.0610;-0.1831;0.6714;-99.6790;-7.8003;12.6013;35.4300 
414.541;0.1758;-1.0166;-0.0142;0.0610;-0.1831;0.6714;-99.6515;-7.8058;12.5958;35.4300 
414.541;0.1758;-1.0166;-0.0142;0.0610;-0.1831;0.6714;-99.6240;-7.8058;12.5903;35.4300 
414.541;0.1758;-1.0166;-0.0142;0.0610;-0.1831;0.6714;-99.5966;-7.8113;12.5848;35.4000 
414.571;0.1753;-1.0161;-0.0142;-0.0610;-0.0610;0.3052;-99.5746;-7.8168;12.5848;35.4000 
414.571;0.1753;-1.0161;-0.0142;-0.0610;-0.0610;0.3052;-99.5471;-7.8168;12.5793;35.3000 
414.581;0.1753;-1.0161;-0.0142;-0.0610;-0.0610;0.3052;-99.5197;-7.8223;12.5739;35.3000 
414.581;0.1753;-1.0161;-0.0142;-0.0610;-0.0610;0.3052;-99.4922;-7.8278;12.5684;35.3800 
414.671;0.1753;-1.0161;-0.0142;-0.0610;-0.0610;0.3052;-99.4702;-7.8333;12.5629;35.3800 
414.671;0.1753;-1.0161;-0.0142;-0.0610;-0.0610;0.3052;-99.4427;-7.8387;12.5574;35.3400 
414.691;0.1753;-1.0161;-0.0142;-0.0610;-0.0610;0.3052;-99.4208;-7.8442;12.5519;35.3400 
414.691;0.1753;-1.0161;-0.0142;-0.0610;-0.0610;0.3052;-99.3933;-7.8497;12.5464;35.4000 
414.691;0.1753;-1.0156;-0.0146;-0.1221;0.0000;0.0610;-99.3658;-7.8552;12.5354;35.4000 
414.691;0.1753;-1.0156;-0.0146;-0.1221;0.0000;0.0610;-99.3439;-7.8607;12.5299;35.3900 
414.691;0.1753;-1.0156;-0.0146;-0.1221;0.0000;0.0610;-99.3164;-7.8662;12.5299;35.3900 
414.691;0.1753;-1.0156;-0.0146;-0.1221;0.0000;0.0610;-99.2944;-7.8717;12.5244;35.3100 
414.691;0.1753;-1.0156;-0.0146;-0.1221;0.0000;0.0610;-99.2670;-7.8772;12.5189;35.3100 
414.691;0.1753;-1.0156;-0.0146;-0.1221;0.0000;0.0610;-99.2450;-7.8827;12.5134;35.3600 
414.691;0.1753;-1.0156;-0.0146;-0.1221;0.0000;0.0610;-99.2175;-7.8882;12.5079;35.3600 
414.691;0.1753;-1.0156;-0.0146;-0.1221;0.0000;0.0610;-99.1956;-7.8937;12.5024;35.3600 
414.691;0.1758;-1.0151;-0.0146;-0.1221;0.0000;-0.0610;-99.1736;-7.8992;12.4969;35.3900 
414.691;0.1758;-1.0151;-0.0146;-0.1221;0.0000;-0.0610;-99.1461;-7.9102;12.4915;35.3900 
414.691;0.1758;-1.0151;-0.0146;-0.1221;0.0000;-0.0610;-99.1241;-7.9156;12.4805;35.4000 
414.691;0.1758;-1.0151;-0.0146;-0.1221;0.0000;-0.0610;-99.0967;-7.9211;12.4750;35.4000 
414.691;0.1758;-1.0151;-0.0146;-0.1221;0.0000;-0.0610;-99.0747;-7.9266;12.4695;35.3600 
414.691;0.1758;-1.0151;-0.0146;-0.1221;0.0000;-0.0610;-99.0527;-7.9321;12.4640;35.3600 
414.691;0.1758;-1.0151;-0.0146;-0.1221;0.0000;-0.0610;-99.0253;-7.9376;12.4585;35.3600 
414.701;0.1758;-1.0151;-0.0146;-0.1221;0.0000;-0.0610;-99.0033;-7.9486;12.4530;35.3600 
414.701;0.1758;-1.0146;-0.0146;-0.1221;0.0000;-0.1221;-98.9813;-7.9541;12.4475;35.3100 
414.711;0.1758;-1.0146;-0.0146;-0.1221;0.0000;-0.1221;-98.9539;-7.9596;12.4420;35.3100 
414.711;0.1758;-1.0146;-0.0146;-0.1221;0.0000;-0.1221;-98.9319;-7.9651;12.4310;35.3100 
414.741;0.1758;-1.0146;-0.0146;-0.1221;0.0000;-0.1221;-98.9099;-7.9706;12.4255;35.3100 
414.741;0.1758;-1.0146;-0.0146;-0.1221;0.0000;-0.1221;-98.8824;-7.9816;12.4200;35.3300 
414.761;0.1758;-1.0146;-0.0146;-0.1221;0.0000;-0.1221;-98.8605;-7.9871;12.4146;35.3300 
414.761;0.1758;-1.0146;-0.0146;-0.1221;0.0000;-0.1221;-98.8385;-7.9926;12.4091;35.3300 
414.761;0.1758;-1.0146;-0.0146;-0.1221;0.0000;-0.1221;-98.8165;-7.9980;12.4036;35.3500 
414.761;0.1763;-1.0142;-0.0146;-0.0610;0.0000;-0.1221;-98.7891;-8.0035;12.3981;35.3500 
414.781;0.1763;-1.0142;-0.0146;-0.0610;0.0000;-0.1221;-98.7671;-8.0145;12.3926;35.3700 
414.781;0.1763;-1.0142;-0.0146;-0.0610;0.0000;-0.1221;-98.7451;-8.0200;12.3871;35.3700 
414.781;0.1763;-1.0142;-0.0146;-0.0610;0.0000;-0.1221;-98.7231;-8.0255;12.3871;35.3500 
414.781;0.1763;-1.0142;-0.0146;-0.0610;0.0000;-0.1221;-98.6957;-8.0310;12.3816;35.3500 
414.781;0.1763;-1.0142;-0.0146;-0.0610;0.0000;-0.1221;-98.6737;-8.0365;12.3761;35.3200 
414.781;0.1763;-1.0142;-0.0146;-0.0610;0.0000;-0.1221;-98.6517;-8.0475;12.3706;35.3200 
414.861;0.1763;-1.0142;-0.0146;-0.0610;0.0000;-0.1221;-98.6298;-8.0530;12.3651;35.3900 
414.861;0.1763;-1.0142;-0.0146;-0.0610;-0.0610;-0.0610;-98.6078;-8.0585;12.3651;35.3900 
414.881;0.1763;-1.0142;-0.0146;-0.0610;-0.0610;-0.0610;-98.5858;-8.0640;12.3596;35.3000 
414.881;0.1763;-1.0142;-0.0146;-0.0610;-0.0610;-0.0610;-98.5583;-8.0695;12.3541;35.3000 
414.881;0.1763;-1.0142;-0.0146;-0.0610;-0.0610;-0.0610;-98.5364;-8.0750;12.3486;35.3300 
414.881;0.1763;-1.0142;-0.0146;-0.0610;-0.0610;-0.0610;-98.5144;-8.0804;12.3431;35.3300 
414.881;0.1763;-1.0142;-0.0146;-0.0610;-0.0610;-0.0610;-98.4924;-8.0859;12.3376;35.3200 
414.881;0.1763;-1.0142;-0.0146;-0.0610;-0.0610;-0.0610;-98.4705;-8.0914;12.3376;35.3200 
414.881;0.1763;-1.0142;-0.0146;-0.0610;-0.0610;-0.0610;-98.4485;-8.0969;12.3322;35.3200 
414.881;0.1763;-1.0142;-0.0146;0.0000;-0.0610;-0.0610;-98.4265;-8.1024;12.3267;35.2800 
414.881;0.1763;-1.0142;-0.0146;0.0000;-0.0610;-0.0610;-98.4045;-8.1079;12.3212;35.2800 
414.881;0.1763;-1.0142;-0.0146;0.0000;-0.0610;-0.0610;-98.3771;-8.1189;12.3212;35.3300 
414.881;0.1763;-1.0142;-0.0146;0.0000;-0.0610;-0.0610;-98.3551;-8.1244;12.3157;35.3300 
414.881;0.1763;-1.0142;-0.0146;0.0000;-0.0610;-0.0610;-98.3331;-8.1299;12.3102;35.3900 
414.881;0.1763;-1.0142;-0.0146;0.0000;-0.0610;-0.0610;-98.3112;-8.1354;12.3047;35.3900 
414.891;0.1763;-1.0142;-0.0146;0.0000;-0.0610;-0.0610;-98.2892;-8.1409;12.3047;35.3500 
414.891;0.1763;-1.0142;-0.0146;0.0000;-0.0610;-0.0610;-98.2672;-8.1464;12.2992;35.3500 
414.901;0.1763;-1.0142;-0.0142;0.0000;-0.0610;0.0000;-98.2452;-8.1519;12.2937;35.3300 
414.901;0.1763;-1.0142;-0.0142;0.0000;-0.0610;0.0000;-98.2233;-8.1573;12.2937;35.3300 
414.911;0.1763;-1.0142;-0.0142;0.0000;-0.0610;0.0000;-98.2013;-8.1628;12.2882;35.3300 
414.911;0.1763;-1.0142;-0.0142;0.0000;-0.0610;0.0000;-98.1793;-8.1683;12.2827;35.3300 
414.921;0.1763;-1.0142;-0.0142;0.0000;-0.0610;0.0000;-98.1573;-8.1738;12.2772;35.3800 
414.921;0.1763;-1.0142;-0.0142;0.0000;-0.0610;0.0000;-98.1354;-8.1793;12.2717;35.3800 
414.931;0.1763;-1.0142;-0.0142;0.0000;-0.0610;0.0000;-98.1134;-8.1848;12.2662;35.3100 
414.931;0.1763;-1.0142;-0.0142;0.0000;-0.0610;0.0000;-98.0914;-8.1903;12.2607;35.3100 
414.931;0.1763;-1.0146;-0.0142;0.0000;-0.0610;0.0000;-98.0695;-8.1958;12.2552;35.3100 
414.931;0.1763;-1.0146;-0.0142;0.0000;-0.0610;0.0000;-98.0475;-8.2013;12.2552;35.3500 
414.941;0.1763;-1.0146;-0.0142;0.0000;-0.0610;0.0000;-98.0255;-8.2013;12.2498;35.3500 
414.941;0.1763;-1.0146;-0.0142;0.0000;-0.0610;0.0000;-98.0035;-8.2068;12.2443;35.3400 
414.941;0.1763;-1.0146;-0.0142;0.0000;-0.0610;0.0000;-97.9816;-8.2123;12.2388;35.3400 
414.941;0.1763;-1.0146;-0.0142;0.0000;-0.0610;0.0000;-97.9651;-8.2178;12.2333;35.3500 
414.951;0.1763;-1.0146;-0.0142;0.0000;-0.0610;0.0000;-97.9431;-8.2233;12.2278;35.3500 
414.951;0.1763;-1.0146;-0.0142;0.0000;-0.0610;0.0000;-97.9211;-8.2288;12.2223;35.3600 
414.951;0.1763;-1.0146;-0.0142;0.0000;-0.0610;0.0000;-97.8992;-8.2343;12.2223;35.3600 
414.951;0.1763;-1.0146;-0.0142;0.0000;-0.0610;0.0000;-97.8772;-8.2397;12.2168;35.3200 
414.951;0.1763;-1.0146;-0.0142;0.0000;-0.0610;0.0000;-97.8552;-8.2452;12.2113;35.3200 
414.951;0.1763;-1.0146;-0.0142;0.0000;-0.0610;0.0000;-97.8333;-8.2507;12.2058;35.3300 
414.951;0.1763;-1.0146;-0.0142;0.0000;-0.0610;0.0000;-97.8168;-8.2562;12.2003;35.3300 
414.961;0.1763;-1.0146;-0.0142;0.0000;-0.0610;0.0000;-97.7948;-8.2617;12.2003;35.3800 
414.961;0.1763;-1.0146;-0.0142;0.0000;-0.0610;0.0000;-97.7728;-8.2672;12.1948;35.3800 
414.961;0.1763;-1.0146;-0.0142;0.0000;-0.0610;0.0000;-97.7509;-8.2727;12.1893;35.3700 
414.961;0.1758;-1.0142;-0.0142;0.0000;-0.0610;0.0000;-97.7289;-8.2782;12.1838;35.3700 
414.981;0.1758;-1.0142;-0.0142;0.0000;-0.0610;0.0000;-97.7124;-8.2782;12.1838;35.3700 
414.981;0.1758;-1.0142;-0.0142;0.0000;-0.0610;0.0000;-97.6904;-8.2837;12.1783;35.3400 
415.071;0.1758;-1.0142;-0.0142;0.0000;-0.0610;0.0000;-97.6685;-8.2892;12.1729;35.3400 
415.071;0.1758;-1.0142;-0.0142;0.0000;-0.0610;0.0000;-97.6520;-8.2947;12.1674;35.3100 
415.071;0.1758;-1.0142;-0.0142;0.0000;-0.0610;0.0000;-97.6300;-8.3002;12.1619;35.3100 
415.071;0.1758;-1.0142;-0.0142;0.0000;-0.0610;0.0000;-97.6080;-8.3057;12.1564;35.3900 
415.071;0.1758;-1.0142;-0.0142;0.0000;-0.0610;0.0000;-97.5861;-8.3112;12.1509;35.3900 
415.071;0.1758;-1.0142;-0.0142;0.0000;-0.0610;0.0000;-97.5696;-8.3167;12.1454;35.3300 
415.071;0.1758;-1.0142;-0.0142;0.0000;-0.0610;0.0000;-97.5476;-8.3221;12.1399;35.3300 
415.071;0.1758;-1.0142;-0.0142;0.0000;-0.0610;0.0000;-97.5256;-8.3221;12.1344;35.3800 
415.091;0.1758;-1.0142;-0.0142;0.0000;-0.0610;0.0000;-97.5092;-8.3276;12.1289;35.3800 
415.091;0.1758;-1.0142;-0.0142;0.0000;-0.0610;0.0000;-97.4872;-8.3331;12.1234;35.3400 
415.091;0.1758;-1.0142;-0.0142;0.0000;-0.0610;0.0000;-97.4707;-8.3386;12.1179;35.3400 
415.091;0.1758;-1.0142;-0.0142;0.0000;-0.0610;0.0000;-97.4487;-8.3441;12.1124;35.2700 
415.091;0.1758;-1.0142;-0.0142;0.0000;-0.0610;0.0000;-97.4268;-8.3496;12.1124;35.2700 
415.091;0.1758;-1.0142;-0.0142;0.0000;-0.0610;0.0000;-97.4103;-8.3551;12.1069;35.3700 
415.091;0.1758;-1.0142;-0.0142;0.0000;-0.0610;0.0000;-97.3883;-8.3606;12.1014;35.3700 
415.091;0.1758;-1.0142;-0.0142;0.0000;-0.0610;0.0000;-97.3718;-8.3606;12.0959;35.3700 
415.091;0.1758;-1.0142;-0.0142;0.0000;-0.0610;0.0000;-97.3499;-8.3661;12.0905;35.3700 
415.091;0.1758;-1.0142;-0.0142;0.0000;-0.0610;0.0000;-97.3279;-8.3716;12.0905;35.3700 
415.091;0.1758;-1.0142;-0.0142;0.0000;-0.0610;0.0000;-97.3114;-8.3771;12.0850;35.3700 
415.091;0.1758;-1.0142;-0.0142;0.0000;-0.0610;0.0000;-97.2894;-8.3826;12.0795;35.3700 
415.091;0.1758;-1.0142;-0.0142;0.0000;-0.0610;0.0000;-97.2729;-8.3881;12.0740;35.3100 
415.091;0.1758;-1.0146;-0.0142;0.0000;-0.0610;0.0000;-97.2510;-8.3881;12.0685;35.3100 
415.091;0.1758;-1.0146;-0.0142;0.0000;-0.0610;0.0000;-97.2345;-8.3936;12.0630;35.3500 
415.091;0.1758;-1.0146;-0.0142;0.0000;-0.0610;0.0000;-97.2125;-8.3990;12.0575;35.3500 
415.091;0.1758;-1.0146;-0.0142;0.0000;-0.0610;0.0000;-97.1960;-8.4045;12.0520;35.3400 
415.091;0.1758;-1.0146;-0.0142;0.0000;-0.0610;0.0000;-97.1741;-8.4100;12.0520;35.3400 
415.091;0.1758;-1.0146;-0.0142;0.0000;-0.0610;0.0000;-97.1576;-8.4155;12.0465;35.3700 
415.111;0.1758;-1.0146;-0.0142;0.0000;-0.0610;0.0000;-97.1356;-8.4155;12.0410;35.3700 
415.111;0.1758;-1.0146;-0.0137;0.0000;-0.0610;0.0000;-97.1191;-8.4210;12.0355;35.3100 
415.131;0.1758;-1.0146;-0.0137;0.0000;-0.0610;0.0000;-97.1027;-8.4265;12.0355;35.3100 
415.131;0.1758;-1.0146;-0.0137;0.0000;-0.0610;0.0000;-97.0807;-8.4320;12.0300;35.3100 
415.131;0.1758;-1.0146;-0.0137;0.0000;-0.0610;0.0000;-97.0642;-8.4375;12.0245;35.3300 
415.131;0.1758;-1.0146;-0.0137;0.0000;-0.0610;0.0000;-97.0422;-8.4375;12.0245;35.3300 
415.131;0.1758;-1.0146;-0.0137;0.0000;-0.0610;0.0000;-97.0258;-8.4430;12.0190;35.3400 
415.131;0.1758;-1.0146;-0.0137;0.0000;-0.0610;0.0000;-97.0093;-8.4485;12.0135;35.3400 
415.131;0.1758;-1.0146;-0.0137;0.0000;-0.0610;0.0000;-96.9873;-8.4540;12.0081;35.3000 
415.131;0.1758;-1.0146;-0.0137;0.0000;-0.0610;0.0000;-96.9708;-8.4595;12.0081;35.3000 
415.141;0.1758;-1.0146;-0.0137;0.0000;-0.0610;0.0000;-96.9489;-8.4595;12.0026;35.4100 
415.141;0.1758;-1.0146;-0.0137;0.0000;-0.0610;0.0000;-96.9324;-8.4650;11.9971;35.4100 
415.141;0.1758;-1.0146;-0.0137;0.0000;-0.0610;0.0000;-96.9159;-8.4705;11.9971;35.3200 
415.141;0.1758;-1.0146;-0.0137;0.0000;-0.0610;0.0000;-96.8939;-8.4760;11.9916;35.3200 
415.151;0.1758;-1.0146;-0.0137;0.0000;-0.0610;0.0000;-96.8774;-8.4760;11.9861;35.3900 
415.151;0.1758;-1.0146;-0.0137;0.0000;-0.0610;0.0000;-96.8610;-8.4814;11.9861;35.3900 
415.151;0.1758;-1.0146;-0.0137;0.0000;-0.0610;0.0000;-96.8390;-8.4869;11.9806;35.3300 
415.151;0.1758;-1.0146;-0.0137;0.0000;0.0000;0.0000;-96.8225;-8.4924;11.9806;35.3300 
415.161;0.1758;-1.0146;-0.0137;0.0000;0.0000;0.0000;-96.8060;-8.4924;11.9751;35.3400 
415.161;0.1758;-1.0146;-0.0137;0.0000;0.0000;0.0000;-96.7896;-8.4979;11.9696;35.3400 
415.161;0.1758;-1.0146;-0.0137;0.0000;0.0000;0.0000;-96.7676;-8.5034;11.9696;35.3400 
415.161;0.1758;-1.0146;-0.0137;0.0000;0.0000;0.0000;-96.7511;-8.5089;11.9641;35.3400 
415.171;0.1758;-1.0146;-0.0137;0.0000;0.0000;0.0000;-96.7346;-8.5144;11.9586;35.3400 
415.171;0.1758;-1.0146;-0.0137;0.0000;0.0000;0.0000;-96.7181;-8.5144;11.9586;35.3200 
415.181;0.1758;-1.0146;-0.0137;0.0000;0.0000;0.0000;-96.6962;-8.5199;11.9531;35.3200 
415.181;0.1758;-1.0146;-0.0137;0.0000;0.0000;0.0000;-96.6797;-8.5254;11.9476;35.3500 
415.271;0.1758;-1.0146;-0.0137;0.0000;0.0000;0.0000;-96.6632;-8.5309;11.9421;35.3500 
415.291;0.1758;-1.0146;-0.0137;0.0000;0.0000;0.0000;-96.6467;-8.5309;11.9366;35.3500 
415.291;0.1758;-1.0146;-0.0137;0.0000;0.0000;0.0000;-96.6248;-8.5364;11.9366;35.3500 
415.291;0.1758;-1.0146;-0.0137;0.0000;0.0000;0.0000;-96.6083;-8.5419;11.9312;35.3400 
415.291;0.1758;-1.0146;-0.0137;0.0000;0.0000;0.0000;-96.5918;-8.5474;11.9257;35.3400 
415.291;0.1758;-1.0146;-0.0137;0.0000;0.0000;0.0000;-96.5753;-8.5474;11.9257;35.3600 
415.291;0.1758;-1.0146;-0.0137;0.0000;0.0000;0.0000;-96.5588;-8.5529;11.9202;35.3600 
415.291;0.1758;-1.0142;-0.0137;0.0000;0.0000;0.0000;-96.5424;-8.5583;11.9147;35.3700 
415.291;0.1758;-1.0142;-0.0137;0.0000;0.0000;0.0000;-96.5204;-8.5638;11.9092;35.3700 
415.291;0.1758;-1.0142;-0.0137;0.0000;0.0000;0.0000;-96.5039;-8.5638;11.9092;35.3700 
415.291;0.1758;-1.0142;-0.0137;0.0000;0.0000;0.0000;-96.4874;-8.5693;11.9037;35.3700 
415.291;0.1758;-1.0142;-0.0137;0.0000;0.0000;0.0000;-96.4709;-8.5748;11.9037;35.3700 
415.291;0.1758;-1.0142;-0.0137;0.0000;0.0000;0.0000;-96.4545;-8.5748;11.8982;35.2900 
415.291;0.1758;-1.0142;-0.0137;0.0000;0.0000;0.0000;-96.4380;-8.5803;11.8927;35.2900 
415.291;0.1758;-1.0142;-0.0137;0.0000;0.0000;0.0000;-96.4215;-8.5858;11.8872;35.3600 
415.291;0.1758;-1.0142;-0.0137;0.0000;0.0000;0.0000;-96.4050;-8.5913;11.8872;35.3600 
415.291;0.1758;-1.0142;-0.0137;0.0000;0.0000;0.0000;-96.3885;-8.5913;11.8817;35.2900 
415.291;0.1758;-1.0142;-0.0137;0.0000;0.0000;0.0000;-96.3721;-8.5968;11.8762;35.2900 
415.291;0.1758;-1.0142;-0.0137;0.0000;0.0000;0.0000;-96.3556;-8.6023;11.8707;35.3800 
415.291;0.1758;-1.0142;-0.0137;0.0000;0.0000;0.0000;-96.3391;-8.6023;11.8652;35.3800 
415.291;0.1758;-1.0142;-0.0137;0.0000;0.0000;0.0000;-96.3226;-8.6078;11.8597;35.3300 
415.291;0.1758;-1.0142;-0.0137;0.0000;0.0000;0.0000;-96.3062;-8.6133;11.8542;35.3300 
415.291;0.1758;-1.0142;-0.0137;0.0000;0.0000;0.0000;-96.2897;-8.6188;11.8488;35.3500 
415.301;0.1758;-1.0142;-0.0137;0.0000;-0.0610;0.0000;-96.2732;-8.6188;11.8488;35.3500 
415.301;0.1758;-1.0142;-0.0137;0.0000;-0.0610;0.0000;-96.2567;-8.6243;11.8433;35.3400 
415.331;0.1758;-1.0142;-0.0137;0.0000;-0.0610;0.0000;-96.2402;-8.6298;11.8378;35.3400 
415.331;0.1758;-1.0142;-0.0137;0.0000;-0.0610;0.0000;-96.2238;-8.6298;11.8323;35.3600 
415.351;0.1758;-1.0142;-0.0137;0.0000;-0.0610;0.0000;-96.2073;-8.6353;11.8268;35.3600 
415.351;0.1758;-1.0142;-0.0137;0.0000;-0.0610;0.0000;-96.1908;-8.6407;11.8268;35.3600 
415.361;0.1758;-1.0142;-0.0137;0.0000;-0.0610;0.0000;-96.1743;-8.6407;11.8213;35.4000 
415.361;0.1758;-1.0142;-0.0137;0.0000;-0.0610;0.0000;-96.1578;-8.6462;11.8158;35.4000 
415.361;0.1758;-1.0142;-0.0137;0.0000;-0.0610;0.0000;-96.1414;-8.6517;11.8103;35.3700 
415.361;0.1758;-1.0142;-0.0137;0.0000;-0.0610;0.0000;-96.1249;-8.6572;11.8048;35.3700 
415.361;0.1758;-1.0142;-0.0137;0.0000;-0.0610;0.0000;-96.1084;-8.6572;11.8048;35.3900 
415.371;0.1758;-1.0142;-0.0137;0.0000;-0.0610;0.0000;-96.0919;-8.6627;11.7993;35.3900 
415.371;0.1758;-1.0142;-0.0137;0.0000;-0.0610;0.0000;-96.0754;-8.6682;11.7938;35.3100 
415.371;0.1758;-1.0142;-0.0137;0.0000;-0.0610;0.0000;-96.0590;-8.6682;11.7938;35.3100 
415.371;0.1758;-1.0142;-0.0137;0.0000;-0.0610;0.0000;-96.0480;-8.6737;11.7883;35.3700 
415.381;0.1758;-1.0142;-0.0137;0.0000;-0.0610;0.0000;-96.0315;-8.6792;11.7883;35.3700 
415.381;0.1758;-1.0142;-0.0137;0.0000;-0.0610;0.0000;-96.0150;-8.6792;11.7828;35.3700 
415.471;0.1758;-1.0142;-0.0137;0.0000;-0.0610;0.0000;-95.9985;-8.6847;11.7773;35.3700 
415.471;0.1758;-1.0142;-0.0137;0.0000;-0.0610;0.0000;-95.9821;-8.6847;11.7773;35.3400 
415.471;0.1758;-1.0142;-0.0137;0.0000;-0.0610;0.0000;-95.9656;-8.6902;11.7719;35.3400 
415.471;0.1758;-1.0142;-0.0137;0.0000;-0.0610;0.0000;-95.9546;-8.6957;11.7719;35.3400 
415.511;0.1758;-1.0142;-0.0137;0.0000;-0.0610;0.0000;-95.9381;-8.6957;11.7664;35.3900 
415.511;0.1758;-1.0142;-0.0137;0.0000;-0.0610;0.0000;-95.9216;-8.7012;11.7664;35.3900 
415.511;0.1758;-1.0142;-0.0137;0.0000;-0.0610;0.0000;-95.9052;-8.7067;11.7609;35.3700 
415.511;0.1758;-1.0146;-0.0142;0.0000;-0.0610;0.0000;-95.8887;-8.7067;11.7609;35.3700 
415.511;0.1758;-1.0146;-0.0142;0.0000;-0.0610;0.0000;-95.8777;-8.7122;11.7554;35.4200 
415.511;0.1758;-1.0146;-0.0142;0.0000;-0.0610;0.0000;-95.8612;-8.7177;11.7499;35.4200 
415.511;0.1758;-1.0146;-0.0142;0.0000;-0.0610;0.0000;-95.8447;-8.7177;11.7499;35.3700 
415.511;0.1758;-1.0146;-0.0142;0.0000;-0.0610;0.0000;-95.8282;-8.7231;11.7444;35.3700 
415.511;0.1758;-1.0146;-0.0142;0.0000;-0.0610;0.0000;-95.8173;-8.7286;11.7444;35.3900 
415.511;0.1758;-1.0146;-0.0142;0.0000;-0.0610;0.0000;-95.8008;-8.7286;11.7389;35.3900 
415.511;0.1758;-1.0146;-0.0142;0.0000;-0.0610;0.0000;-95.7843;-8.7341;11.7334;35.3900 
415.511;0.1758;-1.0151;-0.0142;0.0000;0.0000;0.0000;-95.7678;-8.7341;11.7334;35.3900 
415.511;0.1758;-1.0151;-0.0142;0.0000;0.0000;0.0000;-95.7568;-8.7396;11.7279;35.3500 
415.511;0.1758;-1.0151;-0.0142;0.0000;0.0000;0.0000;-95.7404;-8.7451;11.7224;35.3500 
415.511;0.1758;-1.0151;-0.0142;0.0000;0.0000;0.0000;-95.7239;-8.7451;11.7169;35.3400 
415.511;0.1758;-1.0151;-0.0142;0.0000;0.0000;0.0000;-95.7129;-8.7506;11.7114;35.3400 
415.511;0.1758;-1.0151;-0.0142;0.0000;0.0000;0.0000;-95.6964;-8.7561;11.7114;35.3400 
415.511;0.1758;-1.0151;-0.0142;0.0000;0.0000;0.0000;-95.6799;-8.7561;11.7059;35.3700 
415.521;0.1758;-1.0151;-0.0142;0.0000;0.0000;0.0000;-95.6689;-8.7616;11.7004;35.3700 
415.521;0.1753;-1.0151;-0.0146;0.0000;0.0000;0.0000;-95.6525;-8.7616;11.7004;35.4000 
415.521;0.1753;-1.0151;-0.0146;0.0000;0.0000;0.0000;-95.6360;-8.7671;11.6949;35.4000 
415.521;0.1753;-1.0151;-0.0146;0.0000;0.0000;0.0000;-95.6250;-8.7726;11.6895;35.3500 
415.521;0.1753;-1.0151;-0.0146;0.0000;0.0000;0.0000;-95.6085;-8.7726;11.6895;35.3500 
415.531;0.1753;-1.0151;-0.0146;0.0000;0.0000;0.0000;-95.5975;-8.7781;11.6840;35.3600 
415.531;0.1753;-1.0151;-0.0146;0.0000;0.0000;0.0000;-95.5811;-8.7781;11.6840;35.3600 
415.551;0.1753;-1.0151;-0.0146;0.0000;0.0000;0.0000;-95.5646;-8.7836;11.6785;35.3800 
415.551;0.1753;-1.0151;-0.0146;0.0000;0.0000;0.0000;-95.5536;-8.7836;11.6785;35.3800 
415.551;0.1758;-1.0151;-0.0151;0.0000;0.0000;0.0000;-95.5371;-8.7891;11.6730;35.3400 
415.551;0.1758;-1.0151;-0.0151;0.0000;0.0000;0.0000;-95.5261;-8.7946;11.6730;35.3400 
415.561;0.1758;-1.0151;-0.0151;0.0000;0.0000;0.0000;-95.5096;-8.7946;11.6675;35.3700 
415.561;0.1758;-1.0151;-0.0151;0.0000;0.0000;0.0000;-95.4987;-8.8000;11.6675;35.3700 
415.581;0.1758;-1.0151;-0.0151;0.0000;0.0000;0.0000;-95.4822;-8.8000;11.6620;35.3400 
415.581;0.1758;-1.0151;-0.0151;0.0000;0.0000;0.0000;-95.4712;-8.8055;11.6620;35.3400 
415.581;0.1758;-1.0151;-0.0151;0.0000;0.0000;0.0000;-95.4547;-8.8110;11.6620;35.3400 
415.581;0.1758;-1.0151;-0.0151;0.0000;0.0000;0.0000;-95.4437;-8.8110;11.6565;35.3400 
415.581;0.1763;-1.0151;-0.0151;0.0000;-0.0610;0.0000;-95.4272;-8.8165;11.6565;35.3400 
415.581;0.1763;-1.0151;-0.0151;0.0000;-0.0610;0.0000;-95.4163;-8.8165;11.6510;35.3600 
415.691;0.1763;-1.0151;-0.0151;0.0000;-0.0610;0.0000;-95.3998;-8.8220;11.6510;35.3600 
415.691;0.1763;-1.0151;-0.0151;0.0000;-0.0610;0.0000;-95.3888;-8.8220;11.6510;35.3500 
415.711;0.1763;-1.0151;-0.0151;0.0000;-0.0610;0.0000;-95.3723;-8.8275;11.6455;35.3500 
415.711;0.1763;-1.0151;-0.0151;0.0000;-0.0610;0.0000;-95.3613;-8.8330;11.6455;35.3200 
415.711;0.1763;-1.0151;-0.0151;0.0000;-0.0610;0.0000;-95.3448;-8.8330;11.6400;35.3200 
415.711;0.1763;-1.0151;-0.0151;0.0000;-0.0610;0.0000;-95.3339;-8.8385;11.6400;35.3400 
415.711;0.1763;-1.0151;-0.0151;0.0000;-0.0610;0.0000;-95.3174;-8.8385;11.6400;35.3400 
415.711;0.1763;-1.0151;-0.0151;0.0000;-0.0610;0.0000;-95.3064;-8.8440;11.6345;35.4000 
415.711;0.1763;-1.0151;-0.0151;0.0000;-0.0610;0.0000;-95.2954;-8.8440;11.6345;35.4000 
415.711;0.1763;-1.0151;-0.0151;0.0000;-0.0610;0.0000;-95.2789;-8.8495;11.6345;35.3500 
415.711;0.1763;-1.0151;-0.0151;0.0000;-0.0610;0.0000;-95.2679;-8.8495;11.6345;35.3500 
415.711;0.1763;-1.0151;-0.0151;0.0000;-0.0610;0.0000;-95.2515;-8.8550;11.6290;35.3900 
415.711;0.1763;-1.0151;-0.0151;0.0000;-0.0610;0.0000;-95.2405;-8.8605;11.6290;35.3900 
415.711;0.1763;-1.0151;-0.0151;0.0000;-0.0610;0.0000;-95.2295;-8.8605;11.6290;35.3900 
415.711;0.1768;-1.0151;-0.0146;0.0000;-0.0610;0.0000;-95.2130;-8.8660;11.6235;35.3600 
415.711;0.1768;-1.0151;-0.0146;0.0000;-0.0610;0.0000;-95.2020;-8.8660;11.6235;35.3600 
415.711;0.1768;-1.0151;-0.0146;0.0000;-0.0610;0.0000;-95.1855;-8.8715;11.6235;35.3000 
415.711;0.1768;-1.0151;-0.0146;0.0000;-0.0610;0.0000;-95.1746;-8.8715;11.6235;35.3000 
415.711;0.1768;-1.0151;-0.0146;0.0000;-0.0610;0.0000;-95.1636;-8.8770;11.6235;35.4000 
415.711;0.1768;-1.0151;-0.0146;0.0000;-0.0610;0.0000;-95.1471;-8.8770;11.6180;35.4000 
415.711;0.1768;-1.0151;-0.0146;0.0000;-0.0610;0.0000;-95.1361;-8.8824;11.6180;35.3400 
415.711;0.1768;-1.0151;-0.0146;0.0000;-0.0610;0.0000;-95.1251;-8.8879;11.6180;35.3400 
415.711;0.1763;-1.0151;-0.0146;0.0000;-0.0610;0.0000;-95.1086;-8.8879;11.6180;35.3200 
415.731;0.1763;-1.0151;-0.0146;0.0000;-0.0610;0.0000;-95.0977;-8.8934;11.6180;35.3200 
415.731;0.1763;-1.0151;-0.0146;0.0000;-0.0610;0.0000;-95.0867;-8.8934;11.6180;35.3900 
415.731;0.1763;-1.0151;-0.0146;0.0000;-0.0610;0.0000;-95.0702;-8.8989;11.6125;35.3900 
415.731;0.1763;-1.0151;-0.0146;0.0000;-0.0610;0.0000;-95.0592;-8.8989;11.6125;35.3100 
415.731;0.1763;-1.0151;-0.0146;0.0000;-0.0610;0.0000;-95.0482;-8.9044;11.6125;35.3100 
415.731;0.1763;-1.0151;-0.0146;0.0000;-0.0610;0.0000;-95.0317;-8.9044;11.6071;35.3400 
415.741;0.1763;-1.0151;-0.0146;0.0000;-0.0610;0.0000;-95.0208;-8.9099;11.6071;35.3400 
415.741;0.1763;-1.0146;-0.0137;0.0000;-0.0610;0.0000;-95.0098;-8.9099;11.6016;35.3400 
415.751;0.1763;-1.0146;-0.0137;0.0000;-0.0610;0.0000;-94.9988;-8.9154;11.6016;35.3700 
415.751;0.1763;-1.0146;-0.0137;0.0000;-0.0610;0.0000;-94.9823;-8.9154;11.6016;35.3700 
415.761;0.1763;-1.0146;-0.0137;0.0000;-0.0610;0.0000;-94.9713;-8.9209;11.5961;35.3100 
415.761;0.1763;-1.0146;-0.0137;0.0000;-0.0610;0.0000;-94.9603;-8.9209;11.5961;35.3100 
415.771;0.1763;-1.0146;-0.0137;0.0000;-0.0610;0.0000;-94.9438;-8.9264;11.5906;35.3100 
415.771;0.1763;-1.0146;-0.0137;0.0000;-0.0610;0.0000;-94.9329;-8.9319;11.5851;35.3100 
415.781;0.1763;-1.0146;-0.0137;0.0000;-0.0610;0.0000;-94.9219;-8.9319;11.5851;35.3700 
415.781;0.1763;-1.0146;-0.0137;0.0000;-0.0610;0.0000;-94.9109;-8.9374;11.5796;35.3700 
415.891;0.1763;-1.0146;-0.0137;0.0000;-0.0610;0.0000;-94.8944;-8.9374;11.5796;35.3000 
415.891;0.1763;-1.0146;-0.0137;0.0000;-0.0610;0.0000;-94.8834;-8.9429;11.5741;35.3000 
415.901;0.1763;-1.0146;-0.0137;0.0000;-0.0610;0.0000;-94.8724;-8.9429;11.5741;35.3500 
415.901;0.1763;-1.0146;-0.0137;0.0000;-0.0610;0.0000;-94.8615;-8.9484;11.5686;35.3500 
415.901;0.1763;-1.0146;-0.0137;0.0000;-0.0610;0.0000;-94.8450;-8.9484;11.5631;35.3900 
415.901;0.1763;-1.0146;-0.0137;0.0000;-0.0610;0.0000;-94.8340;-8.9539;11.5631;35.3900 
415.901;0.1763;-1.0146;-0.0137;0.0000;-0.0610;0.0000;-94.8230;-8.9539;11.5576;35.3900 
415.901;0.1763;-1.0142;-0.0132;0.0000;-0.0610;0.0000;-94.8120;-8.9594;11.5576;35.3600 
415.901;0.1763;-1.0142;-0.0132;0.0000;-0.0610;0.0000;-94.8010;-8.9594;11.5521;35.3600 
415.901;0.1763;-1.0142;-0.0132;0.0000;-0.0610;0.0000;-94.7845;-8.9648;11.5521;35.3000 
415.901;0.1763;-1.0142;-0.0132;0.0000;-0.0610;0.0000;-94.7736;-8.9648;11.5466;35.3000 
415.901;0.1763;-1.0142;-0.0132;0.0000;-0.0610;0.0000;-94.7626;-8.9703;11.5466;35.3200 
415.901;0.1763;-1.0142;-0.0132;0.0000;-0.0610;0.0000;-94.7516;-8.9703;11.5411;35.3200 
415.901;0.1763;-1.0142;-0.0132;0.0000;-0.0610;0.0000;-94.7406;-8.9758;11.5411;35.3500 
415.901;0.1763;-1.0142;-0.0132;0.0000;-0.0610;0.0000;-94.7241;-8.9758;11.5356;35.3500 
415.901;0.1763;-1.0142;-0.0137;0.0000;-0.0610;0.0000;-94.7131;-8.9813;11.5356;35.3600 
415.901;0.1763;-1.0142;-0.0137;0.0000;-0.0610;0.0000;-94.7021;-8.9813;11.5302;35.3600 
415.901;0.1763;-1.0142;-0.0137;0.0000;-0.0610;0.0000;-94.6912;-8.9868;11.5302;35.3400 
415.901;0.1763;-1.0142;-0.0137;0.0000;-0.0610;0.0000;-94.6802;-8.9868;11.5247;35.3400 
415.901;0.1763;-1.0142;-0.0137;0.0000;-0.0610;0.0000;-94.6692;-8.9923;11.5247;35.3400 
415.901;0.1763;-1.0142;-0.0137;0.0000;-0.0610;0.0000;-94.6582;-8.9923;11.5247;35.3400 
415.901;0.1763;-1.0142;-0.0137;0.0000;-0.0610;0.0000;-94.6472;-8.9978;11.5192;35.2900 
415.901;0.1763;-1.0142;-0.0137;0.0000;-0.0610;0.0000;-94.6307;-8.9978;11.5192;35.2900 
415.901;0.1763;-1.0142;-0.0137;0.0000;-0.0610;0.0000;-94.6198;-9.0033;11.5137;35.2900 
415.901;0.1763;-1.0142;-0.0137;0.0000;-0.0610;0.0000;-94.6088;-9.0033;11.5137;35.3700 
415.921;0.1763;-1.0142;-0.0137;0.0000;-0.0610;0.0000;-94.5978;-9.0088;11.5137;35.3700 
415.921;0.1763;-1.0142;-0.0137;0.0000;-0.0610;0.0000;-94.5868;-9.0088;11.5082;35.3300 
415.931;0.1763;-1.0142;-0.0137;0.0000;-0.0610;0.0000;-94.5758;-9.0143;11.5082;35.3300 
415.931;0.1763;-1.0142;-0.0137;0.0000;-0.0610;0.0000;-94.5648;-9.0143;11.5027;35.3500 
415.931;0.1763;-1.0142;-0.0137;0.0000;-0.0610;0.0000;-94.5538;-9.0198;11.5027;35.3500 
415.931;0.1763;-1.0142;-0.0137;0.0000;-0.0610;0.0000;-94.5428;-9.0198;11.5027;35.3800 
415.941;0.1763;-1.0142;-0.0142;0.0000;-0.0610;0.0000;-94.5319;-9.0198;11.4972;35.3800 
415.941;0.1763;-1.0142;-0.0142;0.0000;-0.0610;0.0000;-94.5209;-9.0253;11.4972;35.3400 
415.951;0.1763;-1.0142;-0.0142;0.0000;-0.0610;0.0000;-94.5099;-9.0253;11.4972;35.3400 
415.951;0.1763;-1.0142;-0.0142;0.0000;-0.0610;0.0000;-94.4989;-9.0308;11.4972;35.3100 
415.961;0.1763;-1.0142;-0.0142;0.0000;-0.0610;0.0000;-94.4879;-9.0308;11.4972;35.3100 
415.961;0.1763;-1.0142;-0.0142;0.0000;-0.0610;0.0000;-94.4769;-9.0363;11.4917;35.3300 
415.971;0.1763;-1.0142;-0.0142;0.0000;-0.0610;0.0000;-94.4659;-9.0363;11.4917;35.3300 
415.981;0.1763;-1.0142;-0.0142;0.0000;-0.0610;0.0000;-94.4550;-9.0417;11.4862;35.3600 
415.981;0.1763;-1.0146;-0.0142;0.0000;0.0000;0.0000;-94.4440;-9.0417;11.4862;35.3600 
415.981;0.1763;-1.0146;-0.0142;0.0000;0.0000;0.0000;-94.4330;-9.0472;11.4807;35.3600 
415.991;0.1763;-1.0146;-0.0142;0.0000;0.0000;0.0000;-94.4220;-9.0472;11.4807;35.3500 
415.991;0.1763;-1.0146;-0.0142;0.0000;0.0000;0.0000;-94.4110;-9.0527;11.4752;35.3500 
416.001;0.1763;-1.0146;-0.0142;0.0000;0.0000;0.0000;-94.4000;-9.0527;11.4697;35.3100 
416.001;0.1763;-1.0146;-0.0142;0.0000;0.0000;0.0000;-94.3890;-9.0527;11.4697;35.3100 
416.061;0.1763;-1.0146;-0.0142;0.0000;0.0000;0.0000;-94.3781;-9.0582;11.4642;35.3900 
416.061;0.1763;-1.0146;-0.0142;0.0000;0.0000;0.0000;-94.3671;-9.0582;11.4587;35.3900 
416.061;0.1763;-1.0146;-0.0146;0.0000;0.0000;0.0000;-94.3561;-9.0637;11.4587;35.3600 
416.081;0.1763;-1.0146;-0.0146;0.0000;0.0000;0.0000;-94.3451;-9.0637;11.4532;35.3600 
416.081;0.1763;-1.0146;-0.0146;0.0000;0.0000;0.0000;-94.3341;-9.0692;11.4532;35.3400 
416.081;0.1763;-1.0146;-0.0146;0.0000;0.0000;0.0000;-94.3231;-9.0692;11.4478;35.3400 
416.081;0.1763;-1.0146;-0.0146;0.0000;0.0000;0.0000;-94.3121;-9.0747;11.4478;35.3700 
416.081;0.1763;-1.0146;-0.0146;0.0000;0.0000;0.0000;-94.3066;-9.0747;11.4423;35.3700 
416.081;0.1763;-1.0146;-0.0146;0.0000;0.0000;0.0000;-94.2957;-9.0802;11.4423;35.2800 
416.081;0.1763;-1.0146;-0.0146;0.0000;0.0000;0.0000;-94.2847;-9.0802;11.4368;35.2800 
416.081;0.1763;-1.0146;-0.0146;0.0000;0.0000;0.0000;-94.2737;-9.0802;11.4368;35.3800 
416.081;0.1763;-1.0146;-0.0146;0.0000;0.0000;0.0000;-94.2627;-9.0857;11.4313;35.3800 
416.081;0.1763;-1.0146;-0.0146;0.0000;0.0000;0.0000;-94.2517;-9.0857;11.4313;35.3800 
416.091;0.1763;-1.0146;-0.0146;0.0000;0.0000;0.0000;-94.2407;-9.0912;11.4258;35.3400 
416.091;0.1763;-1.0146;-0.0146;0.0000;0.0000;0.0000;-94.2297;-9.0912;11.4203;35.3400 
