Time;ax;ay;az;wx;wy;wz;AngleX;AngleY;AngleZ;T 
540.342;0.0015;0.0059;0.9932;0.0000;0.0000;0.0000;0.4065;-0.0989;-56.9971;35.2300 
540.342;0.0015;0.0059;0.9932;0.0000;0.0000;0.0000;0.4065;-0.0989;-56.9971;35.2600 
540.342;0.0015;0.0059;0.9932;0.0000;0.0000;0.0000;0.4065;-0.0989;-56.9971;35.2600 
540.342;0.0015;0.0059;0.9932;0.0000;0.0000;0.0000;0.4065;-0.0989;-56.9971;35.2600 
540.342;0.0010;0.0068;0.9927;0.0000;0.0000;0.0000;0.4065;-0.0989;-56.9971;35.2400 
540.342;0.0010;0.0068;0.9927;0.0000;0.0000;0.0000;0.4065;-0.0989;-56.9971;35.2400 
540.362;0.0010;0.0068;0.9927;0.0000;0.0000;0.0000;0.4065;-0.0989;-56.9971;35.2500 
540.362;0.0010;0.0068;0.9927;0.0000;0.0000;0.0000;0.4065;-0.0989;-56.9971;35.2500 
540.362;0.0010;0.0068;0.9927;0.0000;0.0000;0.0000;0.4065;-0.0989;-56.9971;35.2500 
540.362;0.0010;0.0068;0.9927;0.0000;0.0000;0.0000;0.4065;-0.0989;-56.9971;35.2500 
540.362;0.0010;0.0068;0.9927;0.0000;0.0000;0.0000;0.4065;-0.0989;-56.9971;35.2800 
540.362;0.0010;0.0068;0.9927;0.0000;0.0000;0.0000;0.4065;-0.0989;-56.9916;35.2800 
540.362;0.0015;0.0068;0.9932;0.0000;0.0000;0.0000;0.4065;-0.0989;-56.9916;35.2800 
540.372;0.0015;0.0068;0.9932;0.0000;0.0000;0.0000;0.4065;-0.0989;-56.9916;35.2800 
540.372;0.0015;0.0068;0.9932;0.0000;0.0000;0.0000;0.4065;-0.0989;-56.9916;35.2700 
540.372;0.0015;0.0068;0.9932;0.0000;0.0000;0.0000;0.4065;-0.0989;-56.9861;35.2700 
540.372;0.0015;0.0068;0.9932;0.0000;0.0000;0.0000;0.4065;-0.0989;-56.9861;35.2100 
540.372;0.0015;0.0068;0.9932;0.0000;0.0000;0.0000;0.4065;-0.0989;-56.9806;35.2100 
540.372;0.0015;0.0068;0.9932;0.0000;0.0000;0.0000;0.4065;-0.0989;-56.9806;35.2100 
540.382;0.0015;0.0068;0.9932;0.0000;0.0000;0.0000;0.4065;-0.0989;-56.9751;35.2100 
540.382;0.0015;0.0059;0.9932;0.0000;0.0000;0.0000;0.4065;-0.0989;-56.9751;35.2100 
540.382;0.0015;0.0059;0.9932;0.0000;0.0000;0.0000;0.4065;-0.0989;-56.9751;35.2400 
540.382;0.0015;0.0059;0.9932;0.0000;0.0000;0.0000;0.4065;-0.0989;-56.9751;35.2400 
540.382;0.0015;0.0059;0.9932;0.0000;0.0000;0.0000;0.4065;-0.0989;-56.9696;35.2800 
540.382;0.0015;0.0059;0.9932;0.0000;0.0000;0.0000;0.4065;-0.0989;-56.9696;35.2800 
540.382;0.0015;0.0059;0.9932;0.0000;0.0000;0.0000;0.4065;-0.0989;-56.9696;35.2600 
540.382;0.0015;0.0059;0.9932;0.0000;0.0000;0.0000;0.4065;-0.0989;-56.9696;35.2600 
540.392;0.0015;0.0059;0.9932;0.0000;0.0000;0.0000;0.4065;-0.0989;-56.9696;35.2200 
540.392;0.0015;0.0068;0.9932;0.0000;0.0000;0.0000;0.4065;-0.0989;-56.9696;35.2200 
540.412;0.0015;0.0068;0.9932;0.0000;0.0000;0.0000;0.4065;-0.0989;-56.9696;35.2400 
540.432;0.0015;0.0068;0.9932;0.0000;0.0000;0.0000;0.4065;-0.0989;-56.9696;35.2400 
540.432;0.0015;0.0068;0.9932;0.0000;0.0000;0.0000;0.4065;-0.0989;-56.9641;35.2500 
540.452;0.0015;0.0068;0.9932;0.0000;0.0000;0.0000;0.4065;-0.0989;-56.9641;35.2500 
540.452;0.0015;0.0068;0.9932;0.0000;0.0000;0.0000;0.4065;-0.0989;-56.9641;35.2700 
540.452;0.0015;0.0068;0.9932;0.0000;0.0000;0.0000;0.4065;-0.0989;-56.9641;35.2700 
540.452;0.0015;0.0068;0.9932;0.0000;0.0000;0.0000;0.4065;-0.0989;-56.9696;35.2200 
540.452;0.0020;0.0073;0.9937;0.0000;0.0000;0.0000;0.4065;-0.0989;-56.9696;35.2200 
540.452;0.0020;0.0073;0.9937;0.0000;0.0000;0.0000;0.4065;-0.0989;-56.9696;35.2200 
540.452;0.0020;0.0073;0.9937;0.0000;0.0000;0.0000;0.4065;-0.0989;-56.9696;35.2600 
540.452;0.0020;0.0073;0.9937;0.0000;0.0000;0.0000;0.4065;-0.0989;-56.9696;35.2600 
540.552;0.0020;0.0073;0.9937;0.0000;0.0000;0.0000;0.4065;-0.0989;-56.9751;35.2800 
540.552;0.0020;0.0073;0.9937;0.0000;0.0000;0.0000;0.4065;-0.0989;-56.9751;35.2800 
540.572;0.0020;0.0073;0.9937;0.0000;0.0000;0.0000;0.4065;-0.0989;-56.9751;35.2800 
540.572;0.0020;0.0073;0.9937;0.0000;0.0000;0.0000;0.4065;-0.0989;-56.9751;35.2800 
540.572;0.0020;0.0063;0.9937;0.0000;0.0000;0.0000;0.4065;-0.0989;-56.9751;35.2400 
540.572;0.0020;0.0063;0.9937;0.0000;0.0000;0.0000;0.4065;-0.0989;-56.9751;35.2400 
540.572;0.0020;0.0063;0.9937;0.0000;0.0000;0.0000;0.4065;-0.0989;-56.9751;35.1400 
540.572;0.0020;0.0063;0.9937;0.0000;0.0000;0.0000;0.4065;-0.0989;-56.9751;35.1400 
540.572;0.0020;0.0063;0.9937;0.0000;0.0000;0.0000;0.4065;-0.0989;-56.9751;35.2600 
540.572;0.0020;0.0063;0.9937;0.0000;0.0000;0.0000;0.4065;-0.0989;-56.9751;35.2600 
540.572;0.0020;0.0063;0.9937;0.0000;0.0000;0.0000;0.4065;-0.0989;-56.9751;35.2200 
540.572;0.0020;0.0063;0.9937;0.0000;0.0000;0.0000;0.4065;-0.0989;-56.9751;35.2200 
540.572;0.0020;0.0078;0.9932;0.0000;0.0000;0.0000;0.4065;-0.0989;-56.9751;35.2200 
540.572;0.0020;0.0078;0.9932;0.0000;0.0000;0.0000;0.4065;-0.0989;-56.9751;35.2700 
540.572;0.0020;0.0078;0.9932;0.0000;0.0000;0.0000;0.4065;-0.0989;-56.9751;35.2700 
540.572;0.0020;0.0078;0.9932;0.0000;0.0000;0.0000;0.4065;-0.0989;-56.9751;35.2200 
540.572;0.0020;0.0078;0.9932;0.0000;0.0000;0.0000;0.4065;-0.0989;-56.9751;35.2200 
540.572;0.0020;0.0078;0.9932;0.0000;0.0000;0.0000;0.4065;-0.0989;-56.9751;35.2600 
540.572;0.0020;0.0078;0.9932;0.0000;0.0000;0.0000;0.4065;-0.0989;-56.9751;35.2600 
540.572;0.0020;0.0078;0.9932;0.0000;0.0000;0.0000;0.4065;-0.0989;-56.9751;35.2800 
540.572;0.0020;0.0083;0.9932;0.0000;0.0000;0.0000;0.4065;-0.0989;-56.9751;35.2800 
540.572;0.0020;0.0083;0.9932;0.0000;0.0000;0.0000;0.4065;-0.0989;-56.9751;35.2600 
540.572;0.0020;0.0083;0.9932;0.0000;0.0000;0.0000;0.4065;-0.0989;-56.9751;35.2600 
540.592;0.0020;0.0083;0.9932;0.0000;0.0000;0.0000;0.4065;-0.0989;-56.9751;35.2100 
540.592;0.0020;0.0083;0.9932;0.0000;0.0000;0.0000;0.4065;-0.0989;-56.9751;35.2100 
540.592;0.0020;0.0083;0.9932;0.0000;0.0000;0.0000;0.4065;-0.0989;-56.9751;35.2800 
540.592;0.0020;0.0083;0.9932;0.0000;0.0000;0.0000;0.4065;-0.0989;-56.9806;35.2800 
540.612;0.0020;0.0083;0.9932;0.0000;0.0000;0.0000;0.4065;-0.0989;-56.9806;35.2700 
540.612;0.0020;0.0068;0.9937;0.0000;0.0000;0.0000;0.4065;-0.0989;-56.9806;35.2700 
540.612;0.0020;0.0068;0.9937;0.0000;0.0000;0.0000;0.4065;-0.0989;-56.9806;35.2700 
540.612;0.0020;0.0068;0.9937;0.0000;0.0000;0.0000;0.4065;-0.0989;-56.9806;35.2400 
540.622;0.0020;0.0068;0.9937;0.0000;0.0000;0.0000;0.4065;-0.0989;-56.9806;35.2400 
540.622;0.0020;0.0068;0.9937;0.0000;0.0000;0.0000;0.4065;-0.0989;-56.9806;35.1800 
540.642;0.0020;0.0068;0.9937;0.0000;0.0000;0.0000;0.4065;-0.0989;-56.9861;35.1800 
540.642;0.0020;0.0068;0.9937;0.0000;0.0000;0.0000;0.4065;-0.0989;-56.9861;35.2700 
540.752;0.0020;0.0068;0.9937;0.0000;0.0000;0.0000;0.4065;-0.0989;-56.9861;35.2700 
540.752;0.0010;0.0078;0.9937;0.0000;0.0000;0.0000;0.4065;-0.0989;-56.9861;35.2400 
540.772;0.0010;0.0078;0.9937;0.0000;0.0000;0.0000;0.4065;-0.0989;-56.9861;35.2400 
540.772;0.0010;0.0078;0.9937;0.0000;0.0000;0.0000;0.4065;-0.0989;-56.9861;35.2300 
540.772;0.0010;0.0078;0.9937;0.0000;0.0000;0.0000;0.4065;-0.0989;-56.9806;35.2300 
540.772;0.0010;0.0078;0.9937;0.0000;0.0000;0.0000;0.4065;-0.0989;-56.9806;35.2300 
540.772;0.0010;0.0078;0.9937;0.0000;0.0000;0.0000;0.4065;-0.0989;-56.9806;35.2300 
540.772;0.0010;0.0078;0.9937;0.0000;0.0000;0.0000;0.4065;-0.0989;-56.9806;35.2600 
540.772;0.0010;0.0078;0.9937;0.0000;0.0000;0.0000;0.4065;-0.0989;-56.9806;35.2600 
540.772;0.0020;0.0078;0.9941;0.0000;0.0000;0.0000;0.4120;-0.0989;-56.9806;35.2400 
540.772;0.0020;0.0078;0.9941;0.0000;0.0000;0.0000;0.4120;-0.0989;-56.9806;35.2400 
540.772;0.0020;0.0078;0.9941;0.0000;0.0000;0.0000;0.4120;-0.0989;-56.9806;35.2400 
540.772;0.0020;0.0078;0.9941;0.0000;0.0000;0.0000;0.4120;-0.0989;-56.9806;35.2300 
540.772;0.0020;0.0078;0.9941;0.0000;0.0000;0.0000;0.4120;-0.0989;-56.9861;35.2300 
540.772;0.0020;0.0078;0.9941;0.0000;0.0000;0.0000;0.4120;-0.0989;-56.9861;35.2500 
540.772;0.0020;0.0078;0.9941;0.0000;0.0000;0.0000;0.4120;-0.0989;-56.9861;35.2500 
540.772;0.0020;0.0078;0.9941;0.0000;0.0000;0.0000;0.4120;-0.0989;-56.9861;35.2400 
540.772;0.0015;0.0054;0.9941;0.0000;0.0000;0.0000;0.4120;-0.0989;-56.9861;35.2400 
540.772;0.0015;0.0054;0.9941;0.0000;0.0000;0.0000;0.4120;-0.0989;-56.9916;35.1900 
540.772;0.0015;0.0054;0.9941;0.0000;0.0000;0.0000;0.4120;-0.0989;-56.9916;35.1900 
540.772;0.0015;0.0054;0.9941;0.0000;0.0000;0.0000;0.4065;-0.0989;-56.9916;35.2500 
540.772;0.0015;0.0054;0.9941;0.0000;0.0000;0.0000;0.4065;-0.0989;-56.9916;35.2500 
540.772;0.0015;0.0054;0.9941;0.0000;0.0000;0.0000;0.4065;-0.0989;-56.9916;35.2500 
540.772;0.0015;0.0054;0.9941;0.0000;0.0000;0.0000;0.4065;-0.0989;-56.9916;35.2500 
540.772;0.0015;0.0054;0.9941;0.0000;0.0000;0.0000;0.4065;-0.0989;-56.9971;35.2200 
540.792;0.0020;0.0068;0.9941;0.0000;0.0000;0.0000;0.4065;-0.0989;-56.9971;35.2200 
540.792;0.0020;0.0068;0.9941;0.0000;0.0000;0.0000;0.4065;-0.0989;-56.9971;35.2900 
540.802;0.0020;0.0068;0.9941;0.0000;0.0000;0.0000;0.4065;-0.0989;-57.0026;35.2900 
540.802;0.0020;0.0068;0.9941;0.0000;0.0000;0.0000;0.4065;-0.0989;-57.0026;35.2900 
540.802;0.0020;0.0068;0.9941;0.0000;0.0000;0.0000;0.4065;-0.0989;-57.0026;35.2700 
540.802;0.0020;0.0068;0.9941;0.0000;0.0000;0.0000;0.4065;-0.0989;-57.0026;35.2700 
540.802;0.0020;0.0068;0.9941;0.0000;0.0000;0.0000;0.4065;-0.0989;-57.0026;35.2600 
540.802;0.0020;0.0068;0.9941;0.0000;0.0000;0.0000;0.4065;-0.0989;-57.0081;35.2600 
540.812;0.0020;0.0073;0.9937;0.0000;0.0000;0.0000;0.4065;-0.0989;-57.0081;35.2100 
540.812;0.0020;0.0073;0.9937;0.0000;0.0000;0.0000;0.4065;-0.0989;-57.0135;35.2100 
540.812;0.0020;0.0073;0.9937;0.0000;0.0000;0.0000;0.4065;-0.0989;-57.0135;35.2300 
540.812;0.0020;0.0073;0.9937;0.0000;0.0000;0.0000;0.4065;-0.0989;-57.0190;35.2300 
540.822;0.0020;0.0073;0.9937;0.0000;0.0000;0.0000;0.4065;-0.0989;-57.0190;35.2300 
540.822;0.0020;0.0073;0.9937;0.0000;0.0000;0.0000;0.4065;-0.0989;-57.0190;35.2300 
540.831;0.0020;0.0073;0.9937;0.0000;0.0000;0.0000;0.4065;-0.0989;-57.0190;35.2500 
540.831;0.0020;0.0073;0.9937;0.0000;0.0000;0.0000;0.4065;-0.0989;-57.0190;35.2500 
540.851;0.0020;0.0059;0.9941;0.0000;0.0000;0.0000;0.4065;-0.0989;-57.0190;35.2500 
540.851;0.0020;0.0059;0.9941;0.0000;0.0000;0.0000;0.4065;-0.0989;-57.0190;35.2500 
540.851;0.0020;0.0059;0.9941;0.0000;0.0000;0.0000;0.4065;-0.0989;-57.0190;35.2500 
540.851;0.0020;0.0059;0.9941;0.0000;0.0000;0.0000;0.4065;-0.0989;-57.0190;35.2300 
540.861;0.0020;0.0059;0.9941;0.0000;0.0000;0.0000;0.4065;-0.0989;-57.0190;35.2300 
540.861;0.0020;0.0059;0.9941;0.0000;0.0000;0.0000;0.4065;-0.0989;-57.0190;35.2100 
540.961;0.0020;0.0059;0.9941;0.0000;0.0000;0.0000;0.4065;-0.0989;-57.0245;35.2100 
540.961;0.0020;0.0059;0.9941;0.0000;0.0000;0.0000;0.4065;-0.0989;-57.0245;35.2600 
540.971;0.0015;0.0078;0.9937;0.0000;0.0000;0.0000;0.4065;-0.0989;-57.0245;35.2600 
540.971;0.0015;0.0078;0.9937;0.0000;0.0000;0.0000;0.4065;-0.0989;-57.0245;35.2600 
540.971;0.0015;0.0078;0.9937;0.0000;0.0000;0.0000;0.4065;-0.0989;-57.0245;35.2600 
540.971;0.0015;0.0078;0.9937;0.0000;0.0000;0.0000;0.4065;-0.0989;-57.0190;35.2100 
540.971;0.0015;0.0078;0.9937;0.0000;0.0000;0.0000;0.4065;-0.0989;-57.0190;35.2100 
540.971;0.0015;0.0078;0.9937;0.0000;0.0000;0.0000;0.4065;-0.0989;-57.0190;35.2500 
540.971;0.0015;0.0078;0.9937;0.0000;0.0000;0.0000;0.4065;-0.0989;-57.0190;35.2500 
540.971;0.0015;0.0078;0.9937;0.0000;0.0000;0.0000;0.4065;-0.0989;-57.0135;35.1400 
540.971;0.0020;0.0078;0.9937;0.0000;0.0000;0.0000;0.4065;-0.0989;-57.0135;35.1400 
540.971;0.0020;0.0078;0.9937;0.0000;0.0000;0.0000;0.4065;-0.0989;-57.0081;35.2400 
540.971;0.0020;0.0078;0.9937;0.0000;0.0000;0.0000;0.4065;-0.0989;-57.0081;35.2400 
540.971;0.0020;0.0078;0.9937;0.0000;0.0000;0.0000;0.4065;-0.0989;-57.0081;35.2400 
540.971;0.0020;0.0078;0.9937;0.0000;0.0000;0.0000;0.4065;-0.0989;-57.0081;35.2300 
540.971;0.0020;0.0078;0.9937;0.0000;0.0000;0.0000;0.4065;-0.0989;-57.0026;35.2300 
540.971;0.0020;0.0078;0.9937;0.0000;0.0000;0.0000;0.4065;-0.0989;-57.0026;35.2200 
540.971;0.0020;0.0078;0.9937;0.0000;0.0000;0.0000;0.4065;-0.0989;-57.0026;35.2200 
540.971;0.0010;0.0068;0.9932;0.0000;0.0000;0.0000;0.4065;-0.0989;-56.9971;35.2500 
540.971;0.0010;0.0068;0.9932;0.0000;0.0000;0.0000;0.4065;-0.0989;-56.9971;35.2500 
540.971;0.0010;0.0068;0.9932;0.0000;0.0000;0.0000;0.4065;-0.0989;-56.9971;35.2400 
540.991;0.0010;0.0068;0.9932;0.0000;0.0000;0.0000;0.4065;-0.0989;-56.9916;35.2400 
540.991;0.0010;0.0068;0.9932;0.0000;0.0000;0.0000;0.4065;-0.0989;-56.9916;35.2600 
540.991;0.0010;0.0068;0.9932;0.0000;0.0000;0.0000;0.4065;-0.0989;-56.9916;35.2600 
540.991;0.0010;0.0068;0.9932;0.0000;0.0000;0.0000;0.4065;-0.0989;-56.9916;35.2700 
541.001;0.0010;0.0068;0.9932;0.0000;0.0000;0.0000;0.4065;-0.0989;-56.9916;35.2700 
541.001;0.0020;0.0078;0.9937;0.0000;0.0000;0.0000;0.4065;-0.0989;-56.9916;35.2600 
541.011;0.0020;0.0078;0.9937;0.0000;0.0000;0.0000;0.4065;-0.0989;-56.9916;35.2600 
541.011;0.0020;0.0078;0.9937;0.0000;0.0000;0.0000;0.4065;-0.0989;-56.9916;35.2600 
541.031;0.0020;0.0078;0.9937;0.0000;0.0000;0.0000;0.4120;-0.0989;-56.9916;35.2600 
541.031;0.0020;0.0078;0.9937;0.0000;0.0000;0.0000;0.4120;-0.0989;-56.9916;35.2600 
541.031;0.0020;0.0078;0.9937;0.0000;0.0000;0.0000;0.4120;-0.0989;-56.9861;35.2000 
541.031;0.0020;0.0078;0.9937;0.0000;0.0000;0.0000;0.4120;-0.0989;-56.9861;35.2000 
541.041;0.0020;0.0078;0.9937;0.0000;0.0000;0.0000;0.4120;-0.0989;-56.9916;35.2200 
541.041;0.0015;0.0073;0.9932;0.0000;0.0000;0.0000;0.4120;-0.0989;-56.9916;35.2200 
541.051;0.0015;0.0073;0.9932;0.0000;0.0000;0.0000;0.4120;-0.0989;-56.9916;35.2200 
541.061;0.0015;0.0073;0.9932;0.0000;0.0000;0.0000;0.4120;-0.0989;-56.9916;35.2200 
541.061;0.0015;0.0073;0.9932;0.0000;0.0000;0.0000;0.4120;-0.0989;-56.9916;35.1900 
541.071;0.0015;0.0073;0.9932;0.0000;0.0000;0.0000;0.4120;-0.0989;-56.9971;35.1900 
541.071;0.0015;0.0073;0.9932;0.0000;0.0000;0.0000;0.4120;-0.0989;-56.9971;35.2400 
541.161;0.0015;0.0073;0.9932;0.0000;0.0000;0.0000;0.4120;-0.0989;-56.9971;35.2400 
541.161;0.0015;0.0073;0.9932;0.0000;0.0000;0.0000;0.4120;-0.0989;-56.9971;35.2300 
541.161;0.0024;0.0068;0.9937;0.0000;0.0000;0.0000;0.4120;-0.0989;-56.9971;35.2300 
541.161;0.0024;0.0068;0.9937;0.0000;0.0000;0.0000;0.4120;-0.0989;-56.9971;35.2600 
541.171;0.0024;0.0068;0.9937;0.0000;0.0000;0.0000;0.4120;-0.0989;-56.9971;35.2600 
541.171;0.0024;0.0068;0.9937;0.0000;0.0000;0.0000;0.4120;-0.0989;-56.9971;35.2400 
541.171;0.0024;0.0068;0.9937;0.0000;0.0000;0.0000;0.4120;-0.0989;-56.9916;35.2400 
541.171;0.0024;0.0068;0.9937;0.0000;0.0000;0.0000;0.4120;-0.0989;-56.9916;35.2400 
541.171;0.0024;0.0068;0.9937;0.0000;0.0000;0.0000;0.4120;-0.0989;-56.9916;35.2800 
541.171;0.0024;0.0068;0.9937;0.0000;0.0000;0.0000;0.4120;-0.0989;-56.9916;35.2800 
541.171;0.0020;0.0078;0.9932;0.0000;0.0000;0.0000;0.4120;-0.0989;-56.9916;35.1700 
541.171;0.0020;0.0078;0.9932;0.0000;0.0000;0.0000;0.4120;-0.0989;-56.9861;35.1700 
541.171;0.0020;0.0078;0.9932;0.0000;0.0000;0.0000;0.4120;-0.0989;-56.9861;35.2600 
541.171;0.0020;0.0078;0.9932;0.0000;0.0000;0.0000;0.4120;-0.0989;-56.9861;35.2600 
541.171;0.0020;0.0078;0.9932;0.0000;0.0000;0.0000;0.4120;-0.0989;-56.9861;35.2000 
541.171;0.0020;0.0078;0.9932;0.0000;0.0000;0.0000;0.4120;-0.0989;-56.9861;35.2000 
541.171;0.0020;0.0078;0.9932;0.0000;0.0000;0.0000;0.4120;-0.0989;-56.9861;35.1700 
541.171;0.0020;0.0078;0.9932;0.0000;0.0000;0.0000;0.4120;-0.0989;-56.9861;35.1700 
541.171;0.0029;0.0078;0.9932;0.0000;0.0000;0.0000;0.4120;-0.0989;-56.9916;35.2300 
541.171;0.0029;0.0078;0.9932;0.0000;0.0000;0.0000;0.4120;-0.0989;-56.9916;35.2300 
541.171;0.0029;0.0078;0.9932;0.0000;0.0000;0.0000;0.4120;-0.0989;-56.9916;35.2800 
541.171;0.0029;0.0078;0.9932;0.0000;0.0000;0.0000;0.4120;-0.0989;-56.9916;35.2800 
541.181;0.0029;0.0078;0.9932;0.0000;0.0000;0.0000;0.4120;-0.0989;-56.9971;35.2300 
541.181;0.0029;0.0078;0.9932;0.0000;0.0000;0.0000;0.4120;-0.0989;-56.9971;35.2300 
541.191;0.0029;0.0078;0.9932;0.0000;0.0000;0.0000;0.4120;-0.0989;-56.9971;35.2300 
541.191;0.0029;0.0078;0.9932;0.0000;0.0000;0.0000;0.4120;-0.0989;-56.9971;35.2700 
541.211;0.0024;0.0073;0.9932;0.0000;0.0000;0.0000;0.4120;-0.0989;-56.9971;35.2700 
541.211;0.0024;0.0073;0.9932;0.0000;0.0000;0.0000;0.4120;-0.0989;-56.9971;35.2200 
541.211;0.0024;0.0073;0.9932;0.0000;0.0000;0.0000;0.4120;-0.0989;-57.0026;35.2200 
541.211;0.0024;0.0073;0.9932;0.0000;0.0000;0.0000;0.4120;-0.0989;-57.0026;35.2000 
541.221;0.0024;0.0073;0.9932;0.0000;0.0000;0.0000;0.4120;-0.0989;-57.0081;35.2000 
541.231;0.0024;0.0073;0.9932;0.0000;0.0000;0.0000;0.4120;-0.0989;-57.0081;35.2600 
541.231;0.0024;0.0073;0.9932;0.0000;0.0000;0.0000;0.4120;-0.0989;-57.0135;35.2600 
541.261;0.0024;0.0073;0.9932;0.0000;0.0000;0.0000;0.4120;-0.0989;-57.0135;35.2600 
541.261;0.0029;0.0078;0.9932;0.0000;0.0000;0.0000;0.4120;-0.0989;-57.0135;35.2600 
541.361;0.0029;0.0078;0.9932;0.0000;0.0000;0.0000;0.4120;-0.0989;-57.0190;35.2500 
541.361;0.0029;0.0078;0.9932;0.0000;0.0000;0.0000;0.4120;-0.0989;-57.0190;35.2500 
541.381;0.0029;0.0078;0.9932;0.0000;0.0000;0.0000;0.4120;-0.0989;-57.0190;35.2600 
541.381;0.0029;0.0078;0.9932;0.0000;0.0000;0.0000;0.4120;-0.1044;-57.0190;35.2600 
541.381;0.0029;0.0078;0.9932;0.0000;0.0000;0.0000;0.4120;-0.1044;-57.0245;35.2600 
541.381;0.0029;0.0078;0.9932;0.0000;0.0000;0.0000;0.4120;-0.1044;-57.0245;35.2700 
541.381;0.0029;0.0078;0.9932;0.0000;0.0000;0.0000;0.4120;-0.1044;-57.0245;35.2700 
541.381;0.0024;0.0073;0.9932;0.0000;0.0000;0.0000;0.4120;-0.1044;-57.0245;35.2300 
541.381;0.0024;0.0073;0.9932;0.0000;0.0000;0.0000;0.4120;-0.1044;-57.0245;35.2300 
541.381;0.0024;0.0073;0.9932;0.0000;0.0000;0.0000;0.4120;-0.1044;-57.0245;35.2300 
541.381;0.0024;0.0073;0.9932;0.0000;0.0000;0.0000;0.4120;-0.1044;-57.0245;35.2300 
541.381;0.0024;0.0073;0.9932;0.0000;0.0000;0.0000;0.4120;-0.1044;-57.0245;35.2500 
541.381;0.0024;0.0073;0.9932;0.0000;0.0000;0.0000;0.4120;-0.1044;-57.0245;35.2500 
541.381;0.0024;0.0073;0.9932;0.0000;0.0000;0.0000;0.4120;-0.1044;-57.0300;35.2400 
541.381;0.0024;0.0073;0.9932;0.0000;0.0000;0.0000;0.4120;-0.1044;-57.0300;35.2400 
541.381;0.0024;0.0078;0.9932;0.0000;0.0000;0.0000;0.4120;-0.1044;-57.0300;35.2500 
541.381;0.0024;0.0078;0.9932;0.0000;0.0000;0.0000;0.4120;-0.1044;-57.0300;35.2500 
541.381;0.0024;0.0078;0.9932;0.0000;0.0000;0.0000;0.4120;-0.1044;-57.0300;35.1900 
541.381;0.0024;0.0078;0.9932;0.0000;0.0000;0.0000;0.4120;-0.1044;-57.0300;35.1900 
541.381;0.0024;0.0078;0.9932;0.0000;0.0000;0.0000;0.4120;-0.1044;-57.0300;35.1900 
541.381;0.0024;0.0078;0.9932;0.0000;0.0000;0.0000;0.4120;-0.1044;-57.0355;35.1900 
541.381;0.0024;0.0078;0.9932;0.0000;0.0000;0.0000;0.4120;-0.1044;-57.0355;35.1900 
541.381;0.0024;0.0078;0.9932;0.0000;0.0000;0.0000;0.4175;-0.1044;-57.0355;35.2100 
541.381;0.0020;0.0083;0.9932;0.0000;0.0000;0.0000;0.4175;-0.1044;-57.0355;35.2100 
541.381;0.0020;0.0083;0.9932;0.0000;0.0000;0.0000;0.4175;-0.1044;-57.0355;35.2000 
541.381;0.0020;0.0083;0.9932;0.0000;0.0000;0.0000;0.4175;-0.1044;-57.0355;35.2000 
541.381;0.0020;0.0083;0.9932;0.0000;0.0000;0.0000;0.4175;-0.1044;-57.0355;35.2300 
541.381;0.0020;0.0083;0.9932;0.0000;0.0000;0.0000;0.4175;-0.1044;-57.0355;35.2300 
541.391;0.0020;0.0083;0.9932;0.0000;0.0000;0.0000;0.4175;-0.1044;-57.0410;35.2500 
541.401;0.0020;0.0083;0.9932;0.0000;0.0000;0.0000;0.4175;-0.1044;-57.0410;35.2500 
541.401;0.0020;0.0083;0.9932;0.0000;0.0000;0.0000;0.4175;-0.1044;-57.0410;35.3000 
541.411;0.0020;0.0078;0.9932;0.0000;0.0000;0.0000;0.4175;-0.1044;-57.0410;35.3000 
541.411;0.0020;0.0078;0.9932;0.0000;0.0000;0.0000;0.4175;-0.1044;-57.0410;35.1900 
541.411;0.0020;0.0078;0.9932;0.0000;0.0000;0.0000;0.4175;-0.1044;-57.0410;35.1900 
541.411;0.0020;0.0078;0.9932;0.0000;0.0000;0.0000;0.4175;-0.1044;-57.0410;35.2600 
541.431;0.0020;0.0078;0.9932;0.0000;0.0000;0.0000;0.4175;-0.1044;-57.0410;35.2600 
541.431;0.0020;0.0078;0.9932;0.0000;0.0000;0.0000;0.4175;-0.1044;-57.0410;35.2600 
541.431;0.0020;0.0078;0.9932;0.0000;0.0000;0.0000;0.4175;-0.1044;-57.0355;35.2600 
541.431;0.0020;0.0078;0.9932;0.0000;0.0000;0.0000;0.4175;-0.1044;-57.0355;35.2600 
541.441;0.0020;0.0078;0.9932;0.0000;0.0000;0.0000;0.4175;-0.1044;-57.0355;35.2500 
541.441;0.0020;0.0078;0.9932;0.0000;0.0000;0.0000;0.4175;-0.1044;-57.0355;35.2500 
541.451;0.0020;0.0078;0.9932;0.0000;0.0000;0.0000;0.4175;-0.1044;-57.0355;35.1900 
541.451;0.0020;0.0078;0.9932;0.0000;0.0000;0.0000;0.4175;-0.1044;-57.0355;35.1900 
541.481;0.0020;0.0078;0.9932;0.0000;0.0000;0.0000;0.4175;-0.1044;-57.0355;35.2800 
541.481;0.0020;0.0078;0.9932;0.0000;0.0000;0.0000;0.4175;-0.1044;-57.0355;35.2800 
541.481;0.0020;0.0078;0.9932;0.0000;0.0000;0.0000;0.4175;-0.1044;-57.0355;35.2500 
541.481;0.0020;0.0078;0.9932;0.0000;0.0000;0.0000;0.4175;-0.1044;-57.0355;35.2500 
541.501;0.0020;0.0073;0.9937;0.0000;0.0000;0.0000;0.4175;-0.1044;-57.0355;35.2500 
541.501;0.0020;0.0073;0.9937;0.0000;0.0000;0.0000;0.4175;-0.1044;-57.0355;35.2500 
541.511;0.0020;0.0073;0.9937;0.0000;0.0000;0.0000;0.4175;-0.1044;-57.0300;35.1900 
541.511;0.0020;0.0073;0.9937;0.0000;0.0000;0.0000;0.4175;-0.1044;-57.0300;35.1900 
541.511;0.0020;0.0073;0.9937;0.0000;0.0000;0.0000;0.4175;-0.1044;-57.0300;35.2200 
541.511;0.0020;0.0073;0.9937;0.0000;0.0000;0.0000;0.4175;-0.1044;-57.0300;35.2200 
541.531;0.0020;0.0073;0.9937;0.0000;0.0000;0.0000;0.4175;-0.1044;-57.0300;35.3100 
541.531;0.0020;0.0073;0.9937;0.0000;0.0000;0.0000;0.4175;-0.1044;-57.0300;35.3100 
541.531;0.0020;0.0063;0.9932;0.0000;0.0000;0.0000;0.4175;-0.1044;-57.0300;35.3100 
541.531;0.0020;0.0063;0.9932;0.0000;0.0000;0.0000;0.4175;-0.1044;-57.0300;35.2300 
541.531;0.0020;0.0063;0.9932;0.0000;0.0000;0.0000;0.4175;-0.1044;-57.0300;35.2300 
541.531;0.0020;0.0063;0.9932;0.0000;0.0000;0.0000;0.4175;-0.1044;-57.0300;35.2000 
541.621;0.0020;0.0063;0.9932;0.0000;0.0000;0.0000;0.4175;-0.1044;-57.0300;35.2000 
541.621;0.0020;0.0063;0.9932;0.0000;0.0000;0.0000;0.4175;-0.1044;-57.0355;35.1700 
541.631;0.0020;0.0063;0.9932;0.0000;0.0000;0.0000;0.4175;-0.1044;-57.0355;35.1700 
541.631;0.0020;0.0063;0.9932;0.0000;0.0000;0.0000;0.4175;-0.1044;-57.0355;35.2400 
541.631;0.0020;0.0068;0.9932;0.0000;0.0000;0.0000;0.4175;-0.1044;-57.0355;35.2400 
541.631;0.0020;0.0068;0.9932;0.0000;0.0000;0.0000;0.4175;-0.1044;-57.0410;35.2000 
541.631;0.0020;0.0068;0.9932;0.0000;0.0000;0.0000;0.4175;-0.1044;-57.0410;35.2000 
541.631;0.0020;0.0068;0.9932;0.0000;0.0000;0.0000;0.4175;-0.1044;-57.0410;35.2300 
541.631;0.0020;0.0068;0.9932;0.0000;0.0000;0.0000;0.4175;-0.1044;-57.0410;35.2300 
541.631;0.0020;0.0068;0.9932;0.0000;0.0000;0.0000;0.4175;-0.1044;-57.0410;35.2500 
541.631;0.0020;0.0068;0.9932;0.0000;0.0000;0.0000;0.4175;-0.1044;-57.0465;35.2500 
541.631;0.0020;0.0068;0.9932;0.0000;0.0000;0.0000;0.4175;-0.1044;-57.0465;35.2500 
541.631;0.0020;0.0063;0.9927;0.0000;0.0000;0.0000;0.4175;-0.1044;-57.0465;35.2500 
541.631;0.0020;0.0063;0.9927;0.0000;0.0000;0.0000;0.4175;-0.1044;-57.0465;35.2500 
541.631;0.0020;0.0063;0.9927;0.0000;0.0000;0.0000;0.4175;-0.1044;-57.0465;35.2400 
541.631;0.0020;0.0063;0.9927;0.0000;0.0000;0.0000;0.4175;-0.1044;-57.0520;35.2400 
541.631;0.0020;0.0063;0.9927;0.0000;0.0000;0.0000;0.4175;-0.1044;-57.0520;35.2000 
541.631;0.0020;0.0063;0.9927;0.0000;0.0000;0.0000;0.4175;-0.1044;-57.0520;35.2000 
541.631;0.0020;0.0063;0.9927;0.0000;0.0000;0.0000;0.4175;-0.1044;-57.0520;35.2400 
541.651;0.0020;0.0063;0.9927;0.0000;0.0000;0.0000;0.4175;-0.1044;-57.0520;35.2400 
541.651;0.0020;0.0063;0.9927;0.0000;0.0000;0.0000;0.4175;-0.1044;-57.0520;35.2600 
541.651;0.0020;0.0063;0.9927;0.0000;0.0000;0.0000;0.4175;-0.1044;-57.0520;35.2600 
541.651;0.0020;0.0063;0.9927;0.0000;0.0000;0.0000;0.4175;-0.1044;-57.0520;35.2200 
541.661;0.0020;0.0063;0.9927;0.0000;0.0000;0.0000;0.4175;-0.1044;-57.0520;35.2200 
541.661;0.0020;0.0063;0.9927;0.0000;0.0000;0.0000;0.4175;-0.1044;-57.0465;35.2800 
541.671;0.0020;0.0063;0.9927;0.0000;0.0000;0.0000;0.4175;-0.1044;-57.0465;35.2800 
541.671;0.0020;0.0063;0.9927;0.0000;0.0000;0.0000;0.4175;-0.1044;-57.0465;35.2700 
541.761;0.0020;0.0063;0.9927;0.0000;0.0000;0.0000;0.4175;-0.1044;-57.0465;35.2700 
541.761;0.0020;0.0063;0.9927;0.0000;0.0000;0.0000;0.4120;-0.1044;-57.0465;35.2700 
541.771;0.0020;0.0063;0.9927;0.0000;0.0000;0.0000;0.4120;-0.1044;-57.0465;35.2200 
541.771;0.0020;0.0063;0.9927;0.0000;0.0000;0.0000;0.4120;-0.1044;-57.0410;35.2200 
541.771;0.0020;0.0063;0.9927;0.0000;0.0000;0.0000;0.4120;-0.1044;-57.0410;35.3200 
541.781;0.0020;0.0063;0.9927;0.0000;0.0000;0.0000;0.4120;-0.1044;-57.0410;35.3200 
541.781;0.0020;0.0063;0.9927;0.0000;0.0000;0.0000;0.4120;-0.1044;-57.0410;35.2600 
541.781;0.0020;0.0063;0.9927;0.0000;0.0000;0.0000;0.4120;-0.1044;-57.0410;35.2600 
541.781;0.0020;0.0063;0.9927;0.0000;0.0000;0.0000;0.4120;-0.1044;-57.0465;35.2300 
541.781;0.0010;0.0068;0.9927;0.0000;0.0000;0.0000;0.4120;-0.1044;-57.0465;35.2300 
541.781;0.0010;0.0068;0.9927;0.0000;0.0000;0.0000;0.4120;-0.1044;-57.0465;35.2200 
541.781;0.0010;0.0068;0.9927;0.0000;0.0000;0.0000;0.4120;-0.1044;-57.0520;35.2200 
541.781;0.0010;0.0068;0.9927;0.0000;0.0000;0.0000;0.4120;-0.1044;-57.0520;35.2400 
541.781;0.0010;0.0068;0.9927;0.0000;0.0000;0.0000;0.4120;-0.1044;-57.0575;35.2400 
541.781;0.0010;0.0068;0.9927;0.0000;0.0000;0.0000;0.4120;-0.1044;-57.0575;35.2400 
541.781;0.0010;0.0068;0.9927;0.0000;0.0000;0.0000;0.4120;-0.1044;-57.0575;35.2400 
541.781;0.0010;0.0068;0.9927;0.0000;0.0000;0.0000;0.4120;-0.1044;-57.0630;35.2300 
541.781;0.0010;0.0068;0.9932;0.0000;0.0000;0.0000;0.4120;-0.1044;-57.0630;35.2300 
541.781;0.0010;0.0068;0.9932;0.0000;0.0000;0.0000;0.4120;-0.1044;-57.0630;35.2300 
541.791;0.0010;0.0068;0.9932;0.0000;0.0000;0.0000;0.4120;-0.1044;-57.0630;35.2200 
541.791;0.0010;0.0068;0.9932;0.0000;0.0000;0.0000;0.4120;-0.1044;-57.0630;35.2200 
541.791;0.0010;0.0068;0.9932;0.0000;0.0000;0.0000;0.4120;-0.1044;-57.0630;35.2600 
541.791;0.0010;0.0068;0.9932;0.0000;0.0000;0.0000;0.4120;-0.1044;-57.0575;35.2600 
541.791;0.0010;0.0068;0.9932;0.0000;0.0000;0.0000;0.4120;-0.1044;-57.0575;35.2900 
541.791;0.0000;0.0073;0.9932;0.0000;0.0000;0.0000;0.4120;-0.1044;-57.0575;35.2900 
541.801;0.0000;0.0073;0.9932;0.0000;0.0000;0.0000;0.4120;-0.1044;-57.0520;35.2500 
541.801;0.0000;0.0073;0.9932;0.0000;0.0000;0.0000;0.4120;-0.0989;-57.0520;35.2500 
541.811;0.0000;0.0073;0.9932;0.0000;0.0000;0.0000;0.4120;-0.0989;-57.0520;35.2100 
541.811;0.0000;0.0073;0.9932;0.0000;0.0000;0.0000;0.4120;-0.0989;-57.0465;35.2100 
541.821;0.0000;0.0073;0.9932;0.0000;0.0000;0.0000;0.4120;-0.0989;-57.0465;35.2900 
541.821;0.0000;0.0073;0.9932;0.0000;0.0000;0.0000;0.4120;-0.0989;-57.0465;35.2900 
541.841;0.0000;0.0073;0.9932;0.0000;0.0000;0.0000;0.4120;-0.0989;-57.0465;35.2400 
541.841;0.0005;0.0083;0.9932;0.0000;0.0000;0.0000;0.4120;-0.0989;-57.0410;35.2400 
541.861;0.0005;0.0083;0.9932;0.0000;0.0000;0.0000;0.4120;-0.0989;-57.0410;35.2900 
541.861;0.0005;0.0083;0.9932;0.0000;0.0000;0.0000;0.4120;-0.0989;-57.0410;35.2900 
541.861;0.0005;0.0083;0.9932;0.0000;0.0000;0.0000;0.4120;-0.0989;-57.0410;35.2900 
541.861;0.0005;0.0083;0.9932;0.0000;0.0000;0.0000;0.4120;-0.0989;-57.0410;35.1700 
541.861;0.0005;0.0083;0.9932;0.0000;0.0000;0.0000;0.4120;-0.0989;-57.0410;35.1700 
541.861;0.0005;0.0083;0.9932;0.0000;0.0000;0.0000;0.4175;-0.0989;-57.0410;35.2600 
541.941;0.0005;0.0083;0.9932;0.0000;0.0000;0.0000;0.4175;-0.0989;-57.0410;35.2600 
541.961;0.0015;0.0073;0.9932;0.0000;0.0000;0.0000;0.4175;-0.0989;-57.0410;35.2800 
541.961;0.0015;0.0073;0.9932;0.0000;0.0000;0.0000;0.4175;-0.0989;-57.0410;35.2800 
541.961;0.0015;0.0073;0.9932;0.0000;0.0000;0.0000;0.4175;-0.0989;-57.0410;35.2600 
541.961;0.0015;0.0073;0.9932;0.0000;0.0000;0.0000;0.4175;-0.0989;-57.0410;35.2600 
541.961;0.0015;0.0073;0.9932;0.0000;0.0000;0.0000;0.4175;-0.0989;-57.0410;35.2900 
541.961;0.0015;0.0073;0.9932;0.0000;0.0000;0.0000;0.4175;-0.0989;-57.0465;35.2900 
541.961;0.0015;0.0073;0.9932;0.0000;0.0000;0.0000;0.4175;-0.0989;-57.0465;35.2300 
541.961;0.0015;0.0073;0.9932;0.0000;0.0000;0.0000;0.4175;-0.0989;-57.0465;35.2300 
541.961;0.0024;0.0073;0.9937;0.0000;0.0000;0.0000;0.4175;-0.0989;-57.0465;35.2800 
541.961;0.0024;0.0073;0.9937;0.0000;0.0000;0.0000;0.4175;-0.0989;-57.0465;35.2800 
541.961;0.0024;0.0073;0.9937;0.0000;0.0000;0.0000;0.4175;-0.0989;-57.0465;35.2800 
541.961;0.0024;0.0073;0.9937;0.0000;0.0000;0.0000;0.4175;-0.0989;-57.0465;35.2800 
541.961;0.0024;0.0073;0.9937;0.0000;0.0000;0.0000;0.4175;-0.0989;-57.0465;35.2800 
541.961;0.0024;0.0073;0.9937;0.0000;0.0000;0.0000;0.4175;-0.0989;-57.0520;35.1900 
541.971;0.0024;0.0073;0.9937;0.0000;0.0000;0.0000;0.4175;-0.0989;-57.0520;35.1900 
541.971;0.0024;0.0073;0.9937;0.0000;0.0000;0.0000;0.4175;-0.0989;-57.0520;35.2400 
541.991;-0.0747;0.0044;1.0327;0.0000;0.0000;0.0000;0.4175;-0.0879;-57.0520;35.2400 
541.991;-0.0747;0.0044;1.0327;0.0000;0.0000;0.0000;0.4120;-0.0714;-57.0520;35.2000 
541.991;-0.0747;0.0044;1.0327;0.0000;0.0000;0.0000;0.4120;-0.0604;-57.0520;35.2000 
541.991;-0.0747;0.0044;1.0327;0.0000;0.0000;0.0000;0.4120;-0.0494;-57.0520;35.2500 
541.991;-0.0747;0.0044;1.0327;0.0000;0.0000;0.0000;0.4120;-0.0330;-57.0520;35.2500 
541.991;-0.0747;0.0044;1.0327;0.0000;0.0000;0.0000;0.4120;-0.0220;-57.0520;35.2500 
541.991;-0.0747;0.0044;1.0327;0.0000;0.0000;0.0000;0.4120;-0.0110;-57.0520;35.2500 
541.991;-0.0747;0.0044;1.0327;0.0000;0.0000;0.0000;0.4120;0.0000;-57.0520;35.2000 
542.001;-0.4131;-0.0034;1.0405;-0.1221;0.3052;0.0610;0.4065;0.0604;-57.0465;35.2000 
542.001;-0.4131;-0.0034;1.0405;-0.1221;0.3052;0.0610;0.4065;0.1263;-57.0410;35.2200 
542.011;-0.4131;-0.0034;1.0405;-0.1221;0.3052;0.0610;0.4010;0.1923;-57.0355;35.2200 
542.021;-0.4131;-0.0034;1.0405;-0.1221;0.3052;0.0610;0.4010;0.2582;-57.0300;35.2200 
542.021;-0.4131;-0.0034;1.0405;-0.1221;0.3052;0.0610;0.3955;0.3241;-57.0245;35.2600 
542.031;-0.4131;-0.0034;1.0405;-0.1221;0.3052;0.0610;0.3900;0.3900;-57.0135;35.2600 
542.031;-0.4131;-0.0034;1.0405;-0.1221;0.3052;0.0610;0.3900;0.4559;-57.0081;35.2100 
542.041;-0.4131;-0.0034;1.0405;-0.1221;0.3052;0.0610;0.3845;0.5219;-57.0026;35.2100 
542.041;-0.8530;0.0029;1.0083;-0.4883;1.5869;0.6714;0.3735;0.6427;-56.9806;35.2600 
542.051;-0.8530;0.0029;1.0083;-0.4883;1.5869;0.6714;0.3625;0.7690;-56.9531;35.2600 
542.051;-0.8530;0.0029;1.0083;-0.4883;1.5869;0.6714;0.3571;0.8899;-56.9312;35.2000 
542.051;-0.8530;0.0029;1.0083;-0.4883;1.5869;0.6714;0.3461;1.0162;-56.9092;35.2000 
542.051;-0.8530;0.0029;1.0083;-0.4883;1.5869;0.6714;0.3351;1.1371;-56.8872;35.1800 
542.061;-0.8530;0.0029;1.0083;-0.4883;1.5869;0.6714;0.3241;1.2634;-56.8652;35.1800 
542.061;-0.8530;0.0029;1.0083;-0.4883;1.5869;0.6714;0.3186;1.3843;-56.8433;35.2300 
542.081;-0.8530;0.0029;1.0083;-0.4883;1.5869;0.6714;0.3076;1.5051;-56.8158;35.2300 
542.081;-1.4990;0.0684;0.9590;-0.7324;3.4180;1.8921;0.2856;1.6809;-56.7664;35.2600 
542.101;-1.4990;0.0684;0.9590;-0.7324;3.4180;1.8921;0.2692;1.8622;-56.7169;35.2600 
542.101;-1.4990;0.0684;0.9590;-0.7324;3.4180;1.8921;0.2527;2.0380;-56.6675;35.2700 
542.101;-1.4990;0.0684;0.9590;-0.7324;3.4180;1.8921;0.2362;2.2137;-56.6180;35.2700 
542.101;-1.4990;0.0684;0.9590;-0.7324;3.4180;1.8921;0.2197;2.3895;-56.5686;35.2700 
542.101;-1.4990;0.0684;0.9590;-0.7324;3.4180;1.8921;0.2032;2.5653;-56.5192;35.2000 
542.101;-1.4990;0.0684;0.9590;-0.7324;3.4180;1.8921;0.1868;2.7411;-56.4752;35.2000 
542.111;-1.4990;0.0684;0.9590;-0.7324;3.4180;1.8921;0.1648;2.9114;-56.4258;35.2100 
542.111;-2.0254;0.0986;0.9268;-1.0376;4.2725;3.1738;0.1373;3.1091;-56.3489;35.2100 
542.201;-2.0254;0.0986;0.9268;-1.0376;4.2725;3.1738;0.1044;3.3069;-56.2775;35.2600 
542.201;-2.0254;0.0986;0.9268;-1.0376;4.2725;3.1738;0.0714;3.5046;-56.2061;35.2600 
542.221;-2.0254;0.0986;0.9268;-1.0376;4.2725;3.1738;0.0439;3.7024;-56.1292;35.2700 
542.221;-2.0254;0.0986;0.9268;-1.0376;4.2725;3.1738;0.0110;3.8947;-56.0577;35.2700 
542.221;-2.0254;0.0986;0.9268;-1.0376;4.2725;3.1738;-0.0110;4.0924;-55.9863;35.2300 
542.221;-2.0254;0.0986;0.9268;-1.0376;4.2725;3.1738;-0.0439;4.2847;-55.9094;35.2300 
542.221;-2.0254;0.0986;0.9268;-1.0376;4.2725;3.1738;-0.0714;4.4824;-55.8380;35.2400 
542.221;-2.3774;0.1421;0.8916;-1.4038;3.7231;2.9297;-0.1099;4.6802;-55.7611;35.2400 
542.221;-2.3774;0.1421;0.8916;-1.4038;3.7231;2.9297;-0.1483;4.8834;-55.6787;35.2700 
542.221;-2.3774;0.1421;0.8916;-1.4038;3.7231;2.9297;-0.1868;5.0812;-55.6018;35.2700 
542.221;-2.3774;0.1421;0.8916;-1.4038;3.7231;2.9297;-0.2197;5.2789;-55.5249;35.2800 
542.221;-2.3774;0.1421;0.8916;-1.4038;3.7231;2.9297;-0.2527;5.4822;-55.4480;35.2800 
542.221;-2.3774;0.1421;0.8916;-1.4038;3.7231;2.9297;-0.2856;5.6799;-55.3711;35.2800 
542.221;-2.3774;0.1421;0.8916;-1.4038;3.7231;2.9297;-0.3241;5.8777;-55.2997;35.3100 
542.221;-2.3774;0.1421;0.8916;-1.4038;3.7231;2.9297;-0.3571;6.0754;-55.2228;35.3100 
542.221;-2.2373;0.1226;0.8501;-1.4648;1.9531;0.0000;-0.3900;6.2622;-55.1678;35.1900 
542.221;-2.2373;0.1226;0.8501;-1.4648;1.9531;0.0000;-0.4230;6.4490;-55.1074;35.1900 
542.221;-2.2373;0.1226;0.8501;-1.4648;1.9531;0.0000;-0.4559;6.6357;-55.0525;35.2700 
542.221;-2.2373;0.1226;0.8501;-1.4648;1.9531;0.0000;-0.4889;6.8225;-54.9976;35.2700 
542.221;-2.2373;0.1226;0.8501;-1.4648;1.9531;0.0000;-0.5219;7.0093;-54.9426;35.2100 
542.221;-2.2373;0.1226;0.8501;-1.4648;1.9531;0.0000;-0.5548;7.1960;-54.8822;35.2100 
542.231;-2.2373;0.1226;0.8501;-1.4648;1.9531;0.0000;-0.5823;7.3828;-54.8273;35.2300 
542.231;-2.2373;0.1226;0.8501;-1.4648;1.9531;0.0000;-0.6152;7.5696;-54.7723;35.2300 
542.241;-1.8525;0.0605;0.7412;-0.9155;-0.3052;-5.4321;-0.6537;7.7344;-54.7449;35.2500 
542.241;-1.8525;0.0605;0.7412;-0.9155;-0.3052;-5.4321;-0.6866;7.9047;-54.7229;35.2500 
542.251;-1.8525;0.0605;0.7412;-0.9155;-0.3052;-5.4321;-0.7196;8.0750;-54.6954;35.2300 
542.251;-1.8525;0.0605;0.7412;-0.9155;-0.3052;-5.4321;-0.7526;8.2452;-54.6735;35.2300 
542.261;-1.8525;0.0605;0.7412;-0.9155;-0.3052;-5.4321;-0.7855;8.4100;-54.6460;35.2700 
542.261;-1.8525;0.0605;0.7412;-0.9155;-0.3052;-5.4321;-0.8185;8.5803;-54.6240;35.2700 
542.271;-1.8525;0.0605;0.7412;-0.9155;-0.3052;-5.4321;-0.8514;8.7451;-54.6021;35.2700 
542.271;-1.8525;0.0605;0.7412;-0.9155;-0.3052;-5.4321;-0.8844;8.9154;-54.5801;35.2800 
542.291;-1.1597;0.0020;0.5381;0.7935;-1.9531;-12.1460;-0.9119;9.0637;-54.6021;35.2800 
542.291;-1.1597;0.0020;0.5381;0.7935;-1.9531;-12.1460;-0.9393;9.2120;-54.6185;35.2500 
542.291;-1.1597;0.0020;0.5381;0.7935;-1.9531;-12.1460;-0.9668;9.3604;-54.6405;35.2500 
542.291;-1.1597;0.0020;0.5381;0.7935;-1.9531;-12.1460;-0.9943;9.5142;-54.6680;35.2500 
542.301;-1.1597;0.0020;0.5381;0.7935;-1.9531;-12.1460;-1.0217;9.6625;-54.6899;35.2500 
542.301;-1.1597;0.0020;0.5381;0.7935;-1.9531;-12.1460;-1.0492;9.8053;-54.7119;35.2800 
542.401;-1.1597;0.0020;0.5381;0.7935;-1.9531;-12.1460;-1.0712;9.9536;-54.7394;35.2800 
542.401;-1.1597;0.0020;0.5381;0.7935;-1.9531;-12.1460;-1.0986;10.1019;-54.7668;35.2200 
542.411;-0.4600;-0.0361;0.3208;3.8452;-2.6855;-18.1274;-1.1151;10.2173;-54.8383;35.2200 
542.411;-0.4600;-0.0361;0.3208;3.8452;-2.6855;-18.1274;-1.1261;10.3326;-54.9152;35.2500 
542.411;-0.4600;-0.0361;0.3208;3.8452;-2.6855;-18.1274;-1.1426;10.4480;-54.9921;35.2500 
542.411;-0.4600;-0.0361;0.3208;3.8452;-2.6855;-18.1274;-1.1591;10.5634;-55.0635;35.2800 
542.411;-0.4600;-0.0361;0.3208;3.8452;-2.6855;-18.1274;-1.1755;10.6787;-55.1404;35.2800 
542.411;-0.4600;-0.0361;0.3208;3.8452;-2.6855;-18.1274;-1.1920;10.7886;-55.2173;35.2400 
542.411;-0.4600;-0.0361;0.3208;3.8452;-2.6855;-18.1274;-1.2085;10.9039;-55.2942;35.2400 
542.411;-0.4600;-0.0361;0.3208;3.8452;-2.6855;-18.1274;-1.2250;11.0138;-55.3711;35.2400 
542.411;0.0708;-0.0513;0.1563;7.6294;-3.1738;-22.1558;-1.2634;10.8984;-55.5194;35.2200 
542.411;0.0708;-0.0513;0.1563;7.6294;-3.1738;-22.1558;-1.3019;10.7831;-55.6622;35.2200 
542.411;0.0708;-0.0513;0.1563;7.6294;-3.1738;-22.1558;-1.3403;10.6677;-55.8105;35.2300 
542.411;0.0708;-0.0513;0.1563;7.6294;-3.1738;-22.1558;-1.3788;10.5524;-55.9534;35.2300 
542.411;0.0708;-0.0513;0.1563;7.6294;-3.1738;-22.1558;-1.4172;10.4425;-56.1017;35.2100 
542.411;0.0708;-0.0513;0.1563;7.6294;-3.1738;-22.1558;-1.4557;10.3271;-56.2445;35.2100 
542.411;0.0708;-0.0513;0.1563;7.6294;-3.1738;-22.1558;-1.4941;10.2118;-56.3928;35.3000 
542.411;0.0708;-0.0513;0.1563;7.6294;-3.1738;-22.1558;-1.5326;10.0964;-56.5356;35.3000 
542.411;0.3809;-0.0479;0.0674;11.2305;-3.1128;-24.5361;-1.4832;9.8383;-56.6180;35.2300 
542.441;0.3809;-0.0479;0.0674;11.2305;-3.1128;-24.5361;-1.4392;9.5746;-56.7059;35.2300 
542.441;0.3809;-0.0479;0.0674;11.2305;-3.1128;-24.5361;-1.3953;9.3164;-56.7883;35.2500 
542.451;0.3809;-0.0479;0.0674;11.2305;-3.1128;-24.5361;-1.3513;9.0527;-56.8707;35.2500 
542.451;0.3809;-0.0479;0.0674;11.2305;-3.1128;-24.5361;-1.3019;8.7946;-56.9531;35.2100 
542.471;0.3809;-0.0479;0.0674;11.2305;-3.1128;-24.5361;-1.2579;8.5364;-57.0355;35.2100 
542.471;0.3809;-0.0479;0.0674;11.2305;-3.1128;-24.5361;-1.2085;8.2782;-57.1234;35.2100 
542.471;0.3809;-0.0479;0.0674;11.2305;-3.1128;-24.5361;-1.1646;8.0200;-57.2058;35.2800 
542.471;0.4995;-0.0347;0.0483;13.9771;-2.0752;-25.9399;-1.0547;7.7673;-57.2552;35.2800 
542.471;0.4995;-0.0347;0.0483;13.9771;-2.0752;-25.9399;-0.9448;7.5146;-57.3102;35.2100 
542.471;0.4995;-0.0347;0.0483;13.9771;-2.0752;-25.9399;-0.8350;7.2620;-57.3651;35.2100 
542.471;0.4995;-0.0347;0.0483;13.9771;-2.0752;-25.9399;-0.7306;7.0093;-57.4255;35.2800 
542.471;0.4995;-0.0347;0.0483;13.9771;-2.0752;-25.9399;-0.6262;6.7511;-57.4860;35.2800 
542.491;0.4995;-0.0347;0.0483;13.9771;-2.0752;-25.9399;-0.5219;6.4984;-57.5464;35.2900 
542.491;0.4995;-0.0347;0.0483;13.9771;-2.0752;-25.9399;-0.4230;6.2512;-57.6068;35.2900 
542.491;0.4995;-0.0347;0.0483;13.9771;-2.0752;-25.9399;-0.3186;5.9985;-57.6672;35.2400 
542.491;0.4902;-0.0156;0.0806;15.9912;0.1221;-26.9775;-0.2087;5.7623;-57.7496;35.2400 
542.491;0.4902;-0.0156;0.0806;15.9912;0.1221;-26.9775;-0.1044;5.5316;-57.8320;35.1700 
542.491;0.4902;-0.0156;0.0806;15.9912;0.1221;-26.9775;0.0000;5.3009;-57.9144;35.1700 
542.491;0.4902;-0.0156;0.0806;15.9912;0.1221;-26.9775;0.1044;5.0702;-57.9913;35.2300 
542.501;0.4902;-0.0156;0.0806;15.9912;0.1221;-26.9775;0.2142;4.8395;-58.0737;35.2300 
542.501;0.4902;-0.0156;0.0806;15.9912;0.1221;-26.9775;0.3241;4.6143;-58.1561;35.2600 
542.590;0.4902;-0.0156;0.0806;15.9912;0.1221;-26.9775;0.4285;4.3835;-58.2385;35.2600 
542.590;0.4902;-0.0156;0.0806;15.9912;0.1221;-26.9775;0.5383;4.1583;-58.3209;35.2600 
542.600;0.1982;0.1958;0.2969;17.3950;2.8687;-28.0762;0.6976;4.0704;-58.4692;35.2500 
542.600;0.1982;0.1958;0.2969;17.3950;2.8687;-28.0762;0.8569;3.9825;-58.6176;35.2500 
542.600;0.1982;0.1958;0.2969;17.3950;2.8687;-28.0762;1.0217;3.8947;-58.7659;35.1700 
542.600;0.1982;0.1958;0.2969;17.3950;2.8687;-28.0762;1.1810;3.8068;-58.9142;35.1700 
542.600;0.1982;0.1958;0.2969;17.3950;2.8687;-28.0762;1.3403;3.7189;-59.0625;35.2100 
542.600;0.1982;0.1958;0.2969;17.3950;2.8687;-28.0762;1.4996;3.6365;-59.2108;35.2100 
542.600;0.1982;0.1958;0.2969;17.3950;2.8687;-28.0762;1.6589;3.5486;-59.3591;35.2100 
542.600;0.1982;0.1958;0.2969;17.3950;2.8687;-28.0762;1.8182;3.4662;-59.5074;35.2100 
542.600;0.1812;0.3101;0.4863;12.0239;0.4272;-26.5503;1.9556;3.4058;-59.6558;35.2100 
542.600;0.1812;0.3101;0.4863;12.0239;0.4272;-26.5503;2.0874;3.3398;-59.8096;35.2100 
542.610;0.1812;0.3101;0.4863;12.0239;0.4272;-26.5503;2.2247;3.2794;-59.9579;35.2800 
542.610;0.1812;0.3101;0.4863;12.0239;0.4272;-26.5503;2.3621;3.2190;-60.1062;35.2800 
542.610;0.1812;0.3101;0.4863;12.0239;0.4272;-26.5503;2.4939;3.1586;-60.2600;35.1900 
542.610;0.1812;0.3101;0.4863;12.0239;0.4272;-26.5503;2.6312;3.0981;-60.4083;35.1900 
542.620;0.1812;0.3101;0.4863;12.0239;0.4272;-26.5503;2.7631;3.0377;-60.5566;35.1900 
542.620;0.1812;0.3101;0.4863;12.0239;0.4272;-26.5503;2.9004;2.9828;-60.7050;35.1900 
542.631;-0.0566;0.4888;0.6191;-9.7046;-5.9204;-20.6909;2.9498;2.9498;-60.8423;35.1900 
542.631;-0.0566;0.4888;0.6191;-9.7046;-5.9204;-20.6909;2.9993;2.9169;-60.9796;35.2600 
542.631;-0.0566;0.4888;0.6191;-9.7046;-5.9204;-20.6909;3.0487;2.8894;-61.1169;35.2600 
542.631;-0.0566;0.4888;0.6191;-9.7046;-5.9204;-20.6909;3.1036;2.8564;-61.2543;35.2300 
542.631;-0.0566;0.4888;0.6191;-9.7046;-5.9204;-20.6909;3.1531;2.8290;-61.3916;35.2300 
542.631;-0.0566;0.4888;0.6191;-9.7046;-5.9204;-20.6909;3.2025;2.7960;-61.5289;35.2600 
542.641;-0.0566;0.4888;0.6191;-9.7046;-5.9204;-20.6909;3.2520;2.7686;-61.6608;35.2600 
542.641;-0.0566;0.4888;0.6191;-9.7046;-5.9204;-20.6909;3.3014;2.7411;-61.7926;35.2300 
542.641;0.0034;0.5034;0.6211;-50.8423;-7.1411;-12.0850;3.1476;2.6917;-61.8805;35.2300 
542.641;0.0034;0.5034;0.6211;-50.8423;-7.1411;-12.0850;2.9993;2.6422;-61.9684;35.2500 
542.651;0.0034;0.5034;0.6211;-50.8423;-7.1411;-12.0850;2.8455;2.5928;-62.0508;35.2500 
542.651;0.0034;0.5034;0.6211;-50.8423;-7.1411;-12.0850;2.6971;2.5433;-62.1387;35.2000 
542.680;0.0034;0.5034;0.6211;-50.8423;-7.1411;-12.0850;2.5488;2.4939;-62.2211;35.2000 
542.700;0.0034;0.5034;0.6211;-50.8423;-7.1411;-12.0850;2.4005;2.4445;-62.3090;35.2100 
542.700;0.0034;0.5034;0.6211;-50.8423;-7.1411;-12.0850;2.2467;2.3950;-62.3914;35.2100 
542.700;0.0034;0.5034;0.6211;-50.8423;-7.1411;-12.0850;2.0984;2.3456;-62.4738;35.2300 
542.700;0.0498;0.3750;0.4004;-107.7271;0.7935;-1.7090;1.6809;2.3181;-62.5067;35.2300 
542.700;0.0498;0.3750;0.4004;-107.7271;0.7935;-1.7090;1.2634;2.2906;-62.5397;35.2300 
542.700;0.0498;0.3750;0.4004;-107.7271;0.7935;-1.7090;0.8459;2.2632;-62.5671;35.2100 
542.790;0.0498;0.3750;0.4004;-107.7271;0.7935;-1.7090;0.4285;2.2357;-62.6001;35.2100 
542.790;0.0498;0.3750;0.4004;-107.7271;0.7935;-1.7090;0.0165;2.2028;-62.6331;35.2100 
542.790;0.0498;0.3750;0.4004;-107.7271;0.7935;-1.7090;-0.3955;2.1753;-62.6660;35.2100 
542.790;0.0498;0.3750;0.4004;-107.7271;0.7935;-1.7090;-0.8075;2.1423;-62.6990;35.2500 
542.790;0.0498;0.3750;0.4004;-107.7271;0.7935;-1.7090;-1.2195;2.1149;-62.7319;35.2500 
542.790;0.0029;0.1157;0.2183;-167.9077;22.8271;7.3853;-1.9666;2.2192;-62.7045;35.2500 
542.810;0.0029;0.1157;0.2183;-167.9077;22.8271;7.3853;-2.7136;2.3236;-62.6715;35.2500 
542.810;0.0029;0.1157;0.2183;-167.9077;22.8271;7.3853;-3.4607;2.4280;-62.6495;35.2300 
542.810;0.0029;0.1157;0.2183;-167.9077;22.8271;7.3853;-4.2023;2.5378;-62.6221;35.2300 
542.810;0.0029;0.1157;0.2183;-167.9077;22.8271;7.3853;-4.9438;2.6422;-62.6001;35.2200 
542.810;0.0029;0.1157;0.2183;-167.9077;22.8271;7.3853;-5.6799;2.7466;-62.5781;35.2200 
542.810;0.0029;0.1157;0.2183;-167.9077;22.8271;7.3853;-6.4160;2.8510;-62.5562;35.2300 
542.810;0.0029;0.1157;0.2183;-167.9077;22.8271;7.3853;-7.1521;2.9553;-62.5397;35.2300 
542.810;-0.0444;-0.1270;0.0933;-215.1489;51.2695;11.2915;-8.3606;3.2300;-62.4518;35.2000 
542.810;-0.0444;-0.1270;0.0933;-215.1489;51.2695;11.2915;-9.5691;3.5046;-62.3694;35.2000 
542.810;-0.0444;-0.1270;0.0933;-215.1489;51.2695;11.2915;-10.7721;3.7793;-62.2925;35.2000 
542.810;-0.0444;-0.1270;0.0933;-215.1489;51.2695;11.2915;-11.9751;4.0540;-62.2156;35.2600 
542.810;-0.0444;-0.1270;0.0933;-215.1489;51.2695;11.2915;-13.1726;4.3231;-62.1497;35.2600 
542.810;-0.0444;-0.1270;0.0933;-215.1489;51.2695;11.2915;-14.3646;4.5978;-62.0892;35.3000 
542.810;-0.0444;-0.1270;0.0933;-215.1489;51.2695;11.2915;-15.5566;4.8724;-62.0343;35.3000 
542.810;-0.0444;-0.1270;0.0933;-215.1489;51.2695;11.2915;-16.7432;5.1416;-61.9794;35.2100 
542.810;-0.0996;-0.3257;0.0488;-241.0278;66.5283;6.1646;-18.1384;5.4767;-61.9958;35.2100 
542.810;-0.0996;-0.3257;0.0488;-241.0278;66.5283;6.1646;-19.5282;5.8063;-62.0178;35.3300 
542.810;-0.0996;-0.3257;0.0488;-241.0278;66.5283;6.1646;-20.9125;6.1359;-62.0508;35.3300 
542.810;-0.0996;-0.3257;0.0488;-241.0278;66.5283;6.1646;-22.3022;6.4600;-62.0892;35.3100 
542.820;-0.0996;-0.3257;0.0488;-241.0278;66.5283;6.1646;-23.6810;6.7786;-62.1332;35.3100 
542.820;-0.0996;-0.3257;0.0488;-241.0278;66.5283;6.1646;-25.0653;7.0972;-62.1826;35.2300 
542.820;-0.0996;-0.3257;0.0488;-241.0278;66.5283;6.1646;-26.4441;7.4103;-62.2430;35.2300 
542.830;-0.0996;-0.3257;0.0488;-241.0278;66.5283;6.1646;-27.8229;7.7234;-62.3035;35.2400 
542.840;-0.1196;-0.4614;0.0991;-246.1548;58.1665;-11.2915;-29.2181;7.9431;-62.4353;35.2400 
542.840;-0.1196;-0.4614;0.0991;-246.1548;58.1665;-11.2915;-30.6134;8.1573;-62.5671;35.2400 
542.850;-0.1196;-0.4614;0.0991;-246.1548;58.1665;-11.2915;-32.0087;8.3716;-62.6990;35.2600 
542.850;-0.1196;-0.4614;0.0991;-246.1548;58.1665;-11.2915;-33.3984;8.5748;-62.8418;35.2600 
542.860;-0.1196;-0.4614;0.0991;-246.1548;58.1665;-11.2915;-34.7882;8.7726;-62.9846;35.1600 
542.860;-0.1196;-0.4614;0.0991;-246.1548;58.1665;-11.2915;-36.1725;8.9703;-63.1329;35.1600 
542.880;-0.1196;-0.4614;0.0991;-246.1548;58.1665;-11.2915;-37.5568;9.1571;-63.2813;35.2600 
542.880;-0.1196;-0.4614;0.0991;-246.1548;58.1665;-11.2915;-38.9410;9.3439;-63.4351;35.2600 
542.880;0.1772;-0.4727;0.1753;-239.0137;24.6582;-42.8467;-40.2429;9.2010;-63.6273;35.2100 
542.880;0.1772;-0.4727;0.1753;-239.0137;24.6582;-42.8467;-41.5393;9.0527;-63.8196;35.2100 
542.890;0.1772;-0.4727;0.1753;-239.0137;24.6582;-42.8467;-42.8302;8.9044;-64.0009;35.2600 
542.890;0.1772;-0.4727;0.1753;-239.0137;24.6582;-42.8467;-44.1211;8.7506;-64.1821;35.2600 
542.990;0.1772;-0.4727;0.1753;-239.0137;24.6582;-42.8467;-45.4010;8.5858;-64.3579;35.2200 
542.990;0.1772;-0.4727;0.1753;-239.0137;24.6582;-42.8467;-46.6809;8.4265;-64.5337;35.2200 
543.000;0.1772;-0.4727;0.1753;-239.0137;24.6582;-42.8467;-47.9498;8.2562;-64.7040;35.2100 
543.000;0.1772;-0.4727;0.1753;-239.0137;24.6582;-42.8467;-49.2188;8.0859;-64.8688;35.2100 
543.000;0.6260;-0.7305;0.0415;-234.0698;-25.8179;-83.0688;-50.4657;7.5201;-64.9731;35.2500 
543.000;0.6260;-0.7305;0.0415;-234.0698;-25.8179;-83.0688;-51.7072;6.9598;-65.0665;35.2500 
543.000;0.6260;-0.7305;0.0415;-234.0698;-25.8179;-83.0688;-52.9376;6.3940;-65.1489;35.2500 
543.000;0.6260;-0.7305;0.0415;-234.0698;-25.8179;-83.0688;-54.1681;5.8337;-65.2203;35.1900 
543.000;0.6260;-0.7305;0.0415;-234.0698;-25.8179;-83.0688;-55.3931;5.2679;-65.2808;35.1900 
543.000;0.6260;-0.7305;0.0415;-234.0698;-25.8179;-83.0688;-56.6071;4.7021;-65.3357;35.2100 
543.000;0.6260;-0.7305;0.0415;-234.0698;-25.8179;-83.0688;-57.8210;4.1364;-65.3741;35.2100 
543.000;0.6260;-0.7305;0.0415;-234.0698;-25.8179;-83.0688;-59.0295;3.5706;-65.4016;35.2700 
543.000;0.9663;-0.7339;0.0508;-234.0088;-74.2798;-115.5396;-60.2051;2.7081;-65.2863;35.2700 
543.000;0.9663;-0.7339;0.0508;-234.0088;-74.2798;-115.5396;-61.3751;1.8567;-65.1599;35.2500 
543.000;0.9663;-0.7339;0.0508;-234.0088;-74.2798;-115.5396;-62.5397;1.0052;-65.0171;35.2500 
543.000;0.9663;-0.7339;0.0508;-234.0088;-74.2798;-115.5396;-63.7097;0.1648;-64.8578;35.2700 
543.000;0.9663;-0.7339;0.0508;-234.0088;-74.2798;-115.5396;-64.8743;-0.6702;-64.6875;35.2700 
543.000;0.9663;-0.7339;0.0508;-234.0088;-74.2798;-115.5396;-66.0388;-1.5106;-64.4952;35.2400 
543.000;0.9663;-0.7339;0.0508;-234.0088;-74.2798;-115.5396;-67.2034;-2.3401;-64.2920;35.2400 
543.000;0.9663;-0.7339;0.0508;-234.0088;-74.2798;-115.5396;-68.3679;-3.1641;-64.0723;35.2300 
543.000;1.2378;-0.8892;-0.1250;-226.8677;-102.7832;-124.0845;-69.5215;-4.0869;-63.7207;35.2300 
543.030;1.2378;-0.8892;-0.1250;-226.8677;-102.7832;-124.0845;-70.6805;-4.9988;-63.3472;35.2900 
543.030;1.2378;-0.8892;-0.1250;-226.8677;-102.7832;-124.0845;-71.8451;-5.9052;-62.9626;35.2900 
543.050;1.2378;-0.8892;-0.1250;-226.8677;-102.7832;-124.0845;-73.0096;-6.8005;-62.5562;35.2900 
543.050;1.2378;-0.8892;-0.1250;-226.8677;-102.7832;-124.0845;-74.1797;-7.6904;-62.1332;35.2600 
543.050;1.2378;-0.8892;-0.1250;-226.8677;-102.7832;-124.0845;-75.3607;-8.5638;-61.6937;35.2600 
543.050;1.2378;-0.8892;-0.1250;-226.8677;-102.7832;-124.0845;-76.5417;-9.4318;-61.2433;35.2200 
543.070;1.2378;-0.8892;-0.1250;-226.8677;-102.7832;-124.0845;-77.7338;-10.2887;-60.7709;35.2200 
543.070;1.0942;-0.7686;-0.1968;-202.3926;-103.7598;-102.2949;-78.8214;-11.0303;-60.2545;35.2600 
543.070;1.0942;-0.7686;-0.1968;-202.3926;-103.7598;-102.2949;-79.9146;-11.7664;-59.7272;35.2600 
543.070;1.0942;-0.7686;-0.1968;-202.3926;-103.7598;-102.2949;-81.0187;-12.4915;-59.1833;35.2900 
543.070;1.0942;-0.7686;-0.1968;-202.3926;-103.7598;-102.2949;-82.1283;-13.2001;-58.6285;35.2900 
543.070;1.0942;-0.7686;-0.1968;-202.3926;-103.7598;-102.2949;-83.2434;-13.9032;-58.0573;35.2100 
543.080;1.0942;-0.7686;-0.1968;-202.3926;-103.7598;-102.2949;-84.3640;-14.5898;-57.4750;35.2100 
543.080;1.0942;-0.7686;-0.1968;-202.3926;-103.7598;-102.2949;-85.4956;-15.2710;-56.8762;35.2300 
543.090;1.0942;-0.7686;-0.1968;-202.3926;-103.7598;-102.2949;-86.6327;-15.9357;-56.2665;35.2300 
543.090;0.7656;-0.5459;-0.1953;-153.4424;-79.4067;-55.0537;-87.5116;-16.3477;-55.7611;35.2500 
543.090;0.7656;-0.5459;-0.1953;-153.4424;-79.4067;-55.0537;-88.3905;-16.7542;-55.2448;35.2500 
543.090;0.7656;-0.5459;-0.1953;-153.4424;-79.4067;-55.0537;-89.2749;-17.1552;-54.7229;35.2600 
543.100;0.7656;-0.5459;-0.1953;-153.4424;-79.4067;-55.0537;-90.1648;-17.5452;-54.1956;35.2600 
543.100;0.7656;-0.5459;-0.1953;-153.4424;-79.4067;-55.0537;-91.0547;-17.9297;-53.6627;35.2600 
543.200;0.7656;-0.5459;-0.1953;-153.4424;-79.4067;-55.0537;-91.9446;-18.3032;-53.1244;35.2800 
543.200;0.7656;-0.5459;-0.1953;-153.4424;-79.4067;-55.0537;-92.8400;-18.6713;-52.5806;35.2800 
543.210;0.7656;-0.5459;-0.1953;-153.4424;-79.4067;-55.0537;-93.7408;-19.0283;-52.0313;35.3000 
543.210;0.5669;-0.4453;-0.2939;-87.2803;-41.0767;0.6714;-94.2792;-19.1107;-51.7072;35.3000 
543.210;0.5669;-0.4453;-0.2939;-87.2803;-41.0767;0.6714;-94.8175;-19.1986;-51.3776;35.2400 
543.210;0.5669;-0.4453;-0.2939;-87.2803;-41.0767;0.6714;-95.3558;-19.2755;-51.0535;35.2400 
543.210;0.5669;-0.4453;-0.2939;-87.2803;-41.0767;0.6714;-95.8942;-19.3524;-50.7349;35.2200 
543.210;0.5669;-0.4453;-0.2939;-87.2803;-41.0767;0.6714;-96.4325;-19.4293;-50.4163;35.2200 
543.210;0.5669;-0.4453;-0.2939;-87.2803;-41.0767;0.6714;-96.9708;-19.5007;-50.0977;35.2300 
543.210;0.5669;-0.4453;-0.2939;-87.2803;-41.0767;0.6714;-97.5092;-19.5667;-49.7791;35.2300 
543.210;0.5669;-0.4453;-0.2939;-87.2803;-41.0767;0.6714;-98.0475;-19.6326;-49.4659;35.2200 
543.210;0.3789;-0.3608;-0.2749;-25.0244;-1.5259;40.1611;-98.2178;-19.5172;-49.4000;35.2200 
543.210;0.3789;-0.3608;-0.2749;-25.0244;-1.5259;40.1611;-98.3936;-19.3964;-49.3451;35.2000 
543.210;0.3789;-0.3608;-0.2749;-25.0244;-1.5259;40.1611;-98.5638;-19.2755;-49.2847;35.2000 
543.210;0.3789;-0.3608;-0.2749;-25.0244;-1.5259;40.1611;-98.7396;-19.1547;-49.2297;35.2000 
543.210;0.3789;-0.3608;-0.2749;-25.0244;-1.5259;40.1611;-98.9099;-19.0338;-49.1748;35.2000 
543.210;0.3789;-0.3608;-0.2749;-25.0244;-1.5259;40.1611;-99.0802;-18.9185;-49.1254;35.2000 
543.210;0.3789;-0.3608;-0.2749;-25.0244;-1.5259;40.1611;-99.2505;-18.7976;-49.0759;35.2100 
543.210;0.3789;-0.3608;-0.2749;-25.0244;-1.5259;40.1611;-99.4208;-18.6768;-49.0265;35.2100 
543.230;0.3521;-0.3848;-0.3447;17.2729;31.6162;50.1709;-99.3494;-18.5229;-49.1748;35.2400 
543.230;0.3521;-0.3848;-0.3447;17.2729;31.6162;50.1709;-99.2725;-18.3636;-49.3231;35.2400 
543.230;0.3521;-0.3848;-0.3447;17.2729;31.6162;50.1709;-99.2010;-18.2043;-49.4714;35.2400 
543.230;0.3521;-0.3848;-0.3447;17.2729;31.6162;50.1709;-99.1296;-18.0505;-49.6198;35.2400 
543.240;0.3521;-0.3848;-0.3447;17.2729;31.6162;50.1709;-99.0582;-17.8912;-49.7681;35.2800 
543.240;0.3521;-0.3848;-0.3447;17.2729;31.6162;50.1709;-98.9868;-17.7374;-49.9164;35.2800 
543.240;0.3521;-0.3848;-0.3447;17.2729;31.6162;50.1709;-98.9154;-17.5781;-50.0647;35.2000 
543.240;0.3521;-0.3848;-0.3447;17.2729;31.6162;50.1709;-98.8440;-17.4243;-50.2130;35.2000 
543.250;0.3086;-0.3789;-0.2983;35.2173;55.1758;35.6445;-98.6462;-17.3474;-50.4767;35.2100 
543.250;0.3086;-0.3789;-0.2983;35.2173;55.1758;35.6445;-98.4540;-17.2705;-50.7349;35.2100 
543.270;0.3086;-0.3789;-0.2983;35.2173;55.1758;35.6445;-98.2562;-17.1936;-50.9930;35.2400 
543.270;0.3086;-0.3789;-0.2983;35.2173;55.1758;35.6445;-98.0640;-17.1222;-51.2512;35.2400 
543.290;0.3086;-0.3789;-0.2983;35.2173;55.1758;35.6445;-97.8662;-17.0453;-51.5094;35.2400 
543.290;0.3086;-0.3789;-0.2983;35.2173;55.1758;35.6445;-97.6740;-16.9629;-51.7676;35.1900 
543.290;0.3086;-0.3789;-0.2983;35.2173;55.1758;35.6445;-97.4817;-16.8860;-52.0258;35.1900 
543.290;0.3086;-0.3789;-0.2983;35.2173;55.1758;35.6445;-97.2949;-16.8091;-52.2784;35.2100 
543.290;0.2964;-0.5117;-0.2671;33.1421;69.3359;7.8125;-97.0752;-16.8530;-52.5916;35.2100 
543.290;0.2964;-0.5117;-0.2671;33.1421;69.3359;7.8125;-96.8555;-16.8970;-52.8992;35.2000 
543.290;0.2964;-0.5117;-0.2671;33.1421;69.3359;7.8125;-96.6357;-16.9354;-53.2123;35.2000 
543.300;0.2964;-0.5117;-0.2671;33.1421;69.3359;7.8125;-96.4215;-16.9794;-53.5254;35.1900 
543.300;0.2964;-0.5117;-0.2671;33.1421;69.3359;7.8125;-96.2018;-17.0178;-53.8330;35.1900 
543.300;0.2964;-0.5117;-0.2671;33.1421;69.3359;7.8125;-95.9875;-17.0563;-54.1461;35.2300 
543.400;0.2964;-0.5117;-0.2671;33.1421;69.3359;7.8125;-95.7733;-17.0947;-54.4537;35.2300 
543.400;0.2964;-0.5117;-0.2671;33.1421;69.3359;7.8125;-95.5536;-17.1277;-54.7668;35.2600 
543.400;0.2686;-0.5376;-0.1699;20.9351;74.4019;-13.9160;-95.3668;-17.2650;-55.0854;35.2600 
543.420;0.2686;-0.5376;-0.1699;20.9351;74.4019;-13.9160;-95.1801;-17.3969;-55.4095;35.2600 
543.420;0.2686;-0.5376;-0.1699;20.9351;74.4019;-13.9160;-94.9933;-17.5287;-55.7281;35.2600 
543.420;0.2686;-0.5376;-0.1699;20.9351;74.4019;-13.9160;-94.8065;-17.6605;-56.0522;35.2500 
543.420;0.2686;-0.5376;-0.1699;20.9351;74.4019;-13.9160;-94.6143;-17.7869;-56.3708;35.2500 
543.420;0.2686;-0.5376;-0.1699;20.9351;74.4019;-13.9160;-94.4275;-17.9187;-56.6895;35.2500 
543.420;0.2686;-0.5376;-0.1699;20.9351;74.4019;-13.9160;-94.2352;-18.0450;-57.0135;35.2300 
543.420;0.2686;-0.5376;-0.1699;20.9351;74.4019;-13.9160;-94.0485;-18.1659;-57.3322;35.2300 
543.420;0.3013;-0.6792;-0.1279;8.9111;70.6177;-17.5171;-93.9056;-18.2977;-57.6343;35.2100 
543.420;0.3013;-0.6792;-0.1279;8.9111;70.6177;-17.5171;-93.7628;-18.4296;-57.9364;35.2100 
543.420;0.3013;-0.6792;-0.1279;8.9111;70.6177;-17.5171;-93.6200;-18.5559;-58.2330;35.2600 
543.420;0.3013;-0.6792;-0.1279;8.9111;70.6177;-17.5171;-93.4717;-18.6877;-58.5352;35.2600 
543.420;0.3013;-0.6792;-0.1279;8.9111;70.6177;-17.5171;-93.3289;-18.8141;-58.8318;35.1400 
543.420;0.3013;-0.6792;-0.1279;8.9111;70.6177;-17.5171;-93.1860;-18.9349;-59.1284;35.1400 
543.420;0.3013;-0.6792;-0.1279;8.9111;70.6177;-17.5171;-93.0377;-19.0613;-59.4250;35.2400 
543.420;0.3013;-0.6792;-0.1279;8.9111;70.6177;-17.5171;-92.8949;-19.1876;-59.7272;35.2400 
543.420;0.3037;-0.8340;-0.0718;1.7090;59.6924;-8.1177;-92.7905;-19.2426;-59.9689;35.2000 
543.420;0.3037;-0.8340;-0.0718;1.7090;59.6924;-8.1177;-92.6807;-19.3030;-60.2106;35.2000 
543.420;0.3037;-0.8340;-0.0718;1.7090;59.6924;-8.1177;-92.5763;-19.3579;-60.4523;35.1400 
543.430;0.3037;-0.8340;-0.0718;1.7090;59.6924;-8.1177;-92.4719;-19.4128;-60.6995;35.1400 
543.430;0.3037;-0.8340;-0.0718;1.7090;59.6924;-8.1177;-92.3621;-19.4733;-60.9412;35.2400 
543.430;0.3037;-0.8340;-0.0718;1.7090;59.6924;-8.1177;-92.2577;-19.5282;-61.1774;35.2400 
543.430;0.3037;-0.8340;-0.0718;1.7090;59.6924;-8.1177;-92.1533;-19.5831;-61.4191;35.2400 
543.430;0.3037;-0.8340;-0.0718;1.7090;59.6924;-8.1177;-92.0435;-19.6381;-61.6608;35.1900 
543.430;0.2754;-0.8901;-0.0151;-0.4272;44.1895;5.9814;-91.9666;-19.6051;-61.8201;35.1900 
543.440;0.2754;-0.8901;-0.0151;-0.4272;44.1895;5.9814;-91.8896;-19.5776;-61.9849;35.2400 
543.460;0.2754;-0.8901;-0.0151;-0.4272;44.1895;5.9814;-91.8127;-19.5447;-62.1442;35.2400 
543.460;0.2754;-0.8901;-0.0151;-0.4272;44.1895;5.9814;-91.7358;-19.5172;-62.3090;35.2500 
543.470;0.2754;-0.8901;-0.0151;-0.4272;44.1895;5.9814;-91.6589;-19.4843;-62.4683;35.2500 
543.470;0.2754;-0.8901;-0.0151;-0.4272;44.1895;5.9814;-91.5820;-19.4568;-62.6276;35.2600 
543.470;0.2754;-0.8901;-0.0151;-0.4272;44.1895;5.9814;-91.5051;-19.4238;-62.7869;35.2600 
543.470;0.2754;-0.8901;-0.0151;-0.4272;44.1895;5.9814;-91.4282;-19.3909;-62.9462;35.2000 
543.500;0.2402;-1.0044;0.0034;-0.9155;26.9775;16.4185;-91.3843;-19.2975;-63.0176;35.2000 
543.500;0.2402;-1.0044;0.0034;-0.9155;26.9775;16.4185;-91.3403;-19.1986;-63.0890;35.2100 
543.590;0.2402;-1.0044;0.0034;-0.9155;26.9775;16.4185;-91.2964;-19.0997;-63.1549;35.2100 
543.590;0.2402;-1.0044;0.0034;-0.9155;26.9775;16.4185;-91.2524;-19.0063;-63.2263;35.2400 
543.600;0.2402;-1.0044;0.0034;-0.9155;26.9775;16.4185;-91.2140;-18.9075;-63.2977;35.2400 
543.600;0.2402;-1.0044;0.0034;-0.9155;26.9775;16.4185;-91.1700;-18.8141;-63.3636;35.2500 
543.600;0.2402;-1.0044;0.0034;-0.9155;26.9775;16.4185;-91.1261;-18.7207;-63.4351;35.2500 
543.600;0.2402;-1.0044;0.0034;-0.9155;26.9775;16.4185;-91.0876;-18.6218;-63.5065;35.2500 
543.600;0.1895;-1.0703;0.0088;-1.7090;11.4136;18.6768;-91.0767;-18.5065;-63.4955;35.2700 
543.600;0.1895;-1.0703;0.0088;-1.7090;11.4136;18.6768;-91.0657;-18.3856;-63.4845;35.2700 
543.600;0.1895;-1.0703;0.0088;-1.7090;11.4136;18.6768;-91.0547;-18.2703;-63.4735;35.2300 
543.600;0.1895;-1.0703;0.0088;-1.7090;11.4136;18.6768;-91.0437;-18.1549;-63.4625;35.2300 
543.600;0.1895;-1.0703;0.0088;-1.7090;11.4136;18.6768;-91.0327;-18.0341;-63.4515;35.2100 
543.600;0.1895;-1.0703;0.0088;-1.7090;11.4136;18.6768;-91.0272;-17.9187;-63.4351;35.2100 
543.600;0.1895;-1.0703;0.0088;-1.7090;11.4136;18.6768;-91.0162;-17.8033;-63.4241;35.3100 
543.600;0.1895;-1.0703;0.0088;-1.7090;11.4136;18.6768;-91.0052;-17.6880;-63.4131;35.3100 
543.600;0.1655;-1.0874;0.0098;-1.9531;0.4883;15.1367;-91.0162;-17.5836;-63.3472;35.2000 
543.600;0.1655;-1.0874;0.0098;-1.9531;0.4883;15.1367;-91.0272;-17.4792;-63.2813;35.2000 
543.600;0.1655;-1.0874;0.0098;-1.9531;0.4883;15.1367;-91.0327;-17.3804;-63.2098;35.2800 
543.600;0.1655;-1.0874;0.0098;-1.9531;0.4883;15.1367;-91.0437;-17.2760;-63.1439;35.2800 
543.600;0.1655;-1.0874;0.0098;-1.9531;0.4883;15.1367;-91.0547;-17.1771;-63.0780;35.2600 
543.600;0.1655;-1.0874;0.0098;-1.9531;0.4883;15.1367;-91.0602;-17.0728;-63.0066;35.2600 
543.630;0.1655;-1.0874;0.0098;-1.9531;0.4883;15.1367;-91.0712;-16.9739;-62.9407;35.2600 
543.630;0.1655;-1.0874;0.0098;-1.9531;0.4883;15.1367;-91.0822;-16.8750;-62.8748;35.2200 
543.650;0.1504;-1.0781;0.0049;-1.5259;-5.3101;9.2773;-91.0986;-16.7981;-62.7759;35.2200 
543.650;0.1504;-1.0781;0.0049;-1.5259;-5.3101;9.2773;-91.1151;-16.7267;-62.6825;35.2500 
543.650;0.1504;-1.0781;0.0049;-1.5259;-5.3101;9.2773;-91.1316;-16.6498;-62.5836;35.2500 
543.660;0.1504;-1.0781;0.0049;-1.5259;-5.3101;9.2773;-91.1481;-16.5784;-62.4902;35.2500 
543.660;0.1504;-1.0781;0.0049;-1.5259;-5.3101;9.2773;-91.1646;-16.5070;-62.3914;35.2500 
543.670;0.1504;-1.0781;0.0049;-1.5259;-5.3101;9.2773;-91.1810;-16.4355;-62.2980;35.2000 
543.670;0.1504;-1.0781;0.0049;-1.5259;-5.3101;9.2773;-91.1975;-16.3586;-62.2046;35.2000 
543.680;0.1504;-1.0781;0.0049;-1.5259;-5.3101;9.2773;-91.2085;-16.2872;-62.1112;35.2800 
543.680;0.1455;-1.0581;-0.0020;-0.9155;-7.1411;3.7231;-91.2250;-16.2433;-62.0068;35.2800 
543.680;0.1455;-1.0581;-0.0020;-0.9155;-7.1411;3.7231;-91.2415;-16.1993;-61.9025;35.2000 
543.680;0.1455;-1.0581;-0.0020;-0.9155;-7.1411;3.7231;-91.2579;-16.1554;-61.7981;35.2000 
543.690;0.1455;-1.0581;-0.0020;-0.9155;-7.1411;3.7231;-91.2744;-16.1115;-61.6937;35.2500 
543.690;0.1455;-1.0581;-0.0020;-0.9155;-7.1411;3.7231;-91.2909;-16.0675;-61.5894;35.2500 
543.690;0.1455;-1.0581;-0.0020;-0.9155;-7.1411;3.7231;-91.3074;-16.0236;-61.4850;35.2200 
543.690;0.1455;-1.0581;-0.0020;-0.9155;-7.1411;3.7231;-91.3239;-15.9741;-61.3806;35.2200 
543.700;0.1455;-1.0581;-0.0020;-0.9155;-7.1411;3.7231;-91.3403;-15.9302;-61.2817;35.2200 
543.700;0.1475;-1.0366;-0.0073;-0.3662;-6.2866;0.0000;-91.3513;-15.9082;-61.1829;35.2300 
543.710;0.1475;-1.0366;-0.0073;-0.3662;-6.2866;0.0000;-91.3623;-15.8862;-61.0840;35.2300 
543.710;0.1475;-1.0366;-0.0073;-0.3662;-6.2866;0.0000;-91.3788;-15.8588;-60.9906;35.2300 
543.710;0.1475;-1.0366;-0.0073;-0.3662;-6.2866;0.0000;-91.3898;-15.8368;-60.8917;35.2300 
543.710;0.1475;-1.0366;-0.0073;-0.3662;-6.2866;0.0000;-91.4008;-15.8093;-60.7928;35.2200 
543.740;0.1475;-1.0366;-0.0073;-0.3662;-6.2866;0.0000;-91.4117;-15.7874;-60.6995;35.2200 
543.740;0.1475;-1.0366;-0.0073;-0.3662;-6.2866;0.0000;-91.4282;-15.7654;-60.6006;35.2100 
543.840;0.1475;-1.0366;-0.0073;-0.3662;-6.2866;0.0000;-91.4392;-15.7379;-60.5072;35.2100 
543.840;0.1533;-1.0200;-0.0112;0.0000;-4.2725;-2.0142;-91.4447;-15.7269;-60.4193;35.2000 
543.860;0.1533;-1.0200;-0.0112;0.0000;-4.2725;-2.0142;-91.4502;-15.7159;-60.3369;35.2000 
543.860;0.1533;-1.0200;-0.0112;0.0000;-4.2725;-2.0142;-91.4612;-15.7050;-60.2490;35.2100 
543.870;0.1533;-1.0200;-0.0112;0.0000;-4.2725;-2.0142;-91.4667;-15.6885;-60.1666;35.2100 
543.870;0.1533;-1.0200;-0.0112;0.0000;-4.2725;-2.0142;-91.4777;-15.6775;-60.0842;35.2000 
543.890;0.1533;-1.0200;-0.0112;0.0000;-4.2725;-2.0142;-91.4832;-15.6665;-59.9963;35.2000 
543.890;0.1533;-1.0200;-0.0112;0.0000;-4.2725;-2.0142;-91.4886;-15.6555;-59.9139;35.2500 
543.920;0.1533;-1.0200;-0.0112;0.0000;-4.2725;-2.0142;-91.4996;-15.6445;-59.8315;35.2500 
543.920;0.1587;-1.0098;-0.0127;0.1831;-2.1362;-2.5635;-91.4996;-15.6335;-59.7601;35.2500 
543.950;0.1587;-1.0098;-0.0127;0.1831;-2.1362;-2.5635;-91.5051;-15.6281;-59.6887;35.2500 
543.950;0.1587;-1.0098;-0.0127;0.1831;-2.1362;-2.5635;-91.5051;-15.6226;-59.6118;35.2500 
544.060;0.1587;-1.0098;-0.0127;0.1831;-2.1362;-2.5635;-91.5106;-15.6116;-59.5404;35.2900 
544.060;0.1587;-1.0098;-0.0127;0.1831;-2.1362;-2.5635;-91.5161;-15.6061;-59.4690;35.2900 
544.080;0.1587;-1.0098;-0.0127;0.1831;-2.1362;-2.5635;-91.5161;-15.5951;-59.3976;35.2500 
544.080;0.1587;-1.0098;-0.0127;0.1831;-2.1362;-2.5635;-91.5216;-15.5896;-59.3262;35.2500 
544.080;0.1587;-1.0098;-0.0127;0.1831;-2.1362;-2.5635;-91.5271;-15.5841;-59.2548;35.2400 
544.080;0.1631;-1.0059;-0.0132;0.2441;-0.4272;-2.1973;-91.5271;-15.5731;-59.1943;35.2400 
544.080;0.1631;-1.0059;-0.0132;0.2441;-0.4272;-2.1973;-91.5271;-15.5676;-59.1284;35.2100 
544.080;0.1631;-1.0059;-0.0132;0.2441;-0.4272;-2.1973;-91.5271;-15.5566;-59.0680;35.2100 
544.080;0.1631;-1.0059;-0.0132;0.2441;-0.4272;-2.1973;-91.5271;-15.5511;-59.0076;35.2200 
544.100;0.1631;-1.0059;-0.0132;0.2441;-0.4272;-2.1973;-91.5271;-15.5402;-58.9417;35.2200 
544.100;0.1631;-1.0059;-0.0132;0.2441;-0.4272;-2.1973;-91.5271;-15.5347;-58.8812;35.2800 
544.190;0.1631;-1.0059;-0.0132;0.2441;-0.4272;-2.1973;-91.5271;-15.5237;-58.8208;35.2800 
544.200;0.1631;-1.0059;-0.0132;0.2441;-0.4272;-2.1973;-91.5271;-15.5182;-58.7604;35.1900 
544.220;0.1655;-1.0063;-0.0127;0.1831;0.4883;-1.4648;-91.5271;-15.5017;-58.7054;35.1900 
544.220;0.1655;-1.0063;-0.0127;0.1831;0.4883;-1.4648;-91.5271;-15.4907;-58.6505;35.1900 
544.220;0.1655;-1.0063;-0.0127;0.1831;0.4883;-1.4648;-91.5271;-15.4797;-58.5956;35.2300 
544.220;0.1655;-1.0063;-0.0127;0.1831;0.4883;-1.4648;-91.5271;-15.4688;-58.5352;35.2300 
544.220;0.1655;-1.0063;-0.0127;0.1831;0.4883;-1.4648;-91.5216;-15.4578;-58.4802;35.3000 
544.220;0.1655;-1.0063;-0.0127;0.1831;0.4883;-1.4648;-91.5216;-15.4468;-58.4253;35.3000 
544.230;0.1655;-1.0063;-0.0127;0.1831;0.4883;-1.4648;-91.5216;-15.4358;-58.3704;35.2300 
544.230;0.1655;-1.0063;-0.0127;0.1831;0.4883;-1.4648;-91.5216;-15.4248;-58.3154;35.2300 
544.230;0.1665;-1.0088;-0.0122;0.1221;0.9155;-0.6714;-91.5216;-15.4138;-58.2660;35.3100 
544.230;0.1665;-1.0088;-0.0122;0.1221;0.9155;-0.6714;-91.5216;-15.3973;-58.2111;35.3100 
544.250;0.1665;-1.0088;-0.0122;0.1221;0.9155;-0.6714;-91.5161;-15.3809;-58.1561;35.3100 
544.250;0.1665;-1.0088;-0.0122;0.1221;0.9155;-0.6714;-91.5161;-15.3699;-58.1067;35.3100 
544.250;0.1665;-1.0088;-0.0122;0.1221;0.9155;-0.6714;-91.5161;-15.3534;-58.0518;35.1700 
544.250;0.1665;-1.0088;-0.0122;0.1221;0.9155;-0.6714;-91.5161;-15.3369;-58.0023;35.1700 
544.260;0.1665;-1.0088;-0.0122;0.1221;0.9155;-0.6714;-91.5106;-15.3259;-57.9474;35.3100 
544.260;0.1665;-1.0088;-0.0122;0.1221;0.9155;-0.6714;-91.5106;-15.3094;-57.8979;35.3100 
544.290;0.1665;-1.0117;-0.0112;0.0610;0.8545;-0.0610;-91.5106;-15.2930;-57.8430;35.3100 
544.290;0.1665;-1.0117;-0.0112;0.0610;0.8545;-0.0610;-91.5106;-15.2710;-57.7936;35.2500 
544.300;0.1665;-1.0117;-0.0112;0.0610;0.8545;-0.0610;-91.5106;-15.2545;-57.7386;35.2500 
544.300;0.1665;-1.0117;-0.0112;0.0610;0.8545;-0.0610;-91.5051;-15.2380;-57.6892;35.2900 
544.300;0.1665;-1.0117;-0.0112;0.0610;0.8545;-0.0610;-91.5051;-15.2216;-57.6398;35.2900 
544.370;0.1665;-1.0117;-0.0112;0.0610;0.8545;-0.0610;-91.5051;-15.2051;-57.5903;35.2600 
544.370;0.1665;-1.0117;-0.0112;0.0610;0.8545;-0.0610;-91.5051;-15.1886;-57.5409;35.2600 
544.370;0.1665;-1.0117;-0.0112;0.0610;0.8545;-0.0610;-91.4996;-15.1666;-57.4915;35.2300 
544.370;0.1655;-1.0142;-0.0107;0.0000;0.6104;0.2441;-91.4996;-15.1501;-57.4365;35.2300 
544.460;0.1655;-1.0142;-0.0107;0.0000;0.6104;0.2441;-91.4996;-15.1282;-57.3871;35.1900 
544.460;0.1655;-1.0142;-0.0107;0.0000;0.6104;0.2441;-91.4996;-15.1117;-57.3376;35.1900 
544.460;0.1655;-1.0142;-0.0107;0.0000;0.6104;0.2441;-91.4996;-15.0952;-57.2882;35.2200 
544.460;0.1655;-1.0142;-0.0107;0.0000;0.6104;0.2441;-91.4996;-15.0732;-57.2388;35.2200 
544.480;0.1655;-1.0142;-0.0107;0.0000;0.6104;0.2441;-91.4996;-15.0568;-57.1893;35.2800 
544.480;0.1655;-1.0142;-0.0107;0.0000;0.6104;0.2441;-91.4941;-15.0348;-57.1399;35.2800 
544.480;0.1650;-1.0161;-0.0103;0.0000;0.3052;0.3662;-91.4941;-15.0183;-57.0850;35.2500 
544.480;0.1650;-1.0161;-0.0103;0.0000;0.3052;0.3662;-91.4941;-14.9963;-57.0355;35.2500 
544.480;0.1650;-1.0161;-0.0103;0.0000;0.3052;0.3662;-91.4941;-14.9799;-56.9861;35.2500 
544.480;0.1650;-1.0161;-0.0103;0.0000;0.3052;0.3662;-91.4941;-14.9579;-56.9312;35.2300 
544.480;0.1650;-1.0161;-0.0103;0.0000;0.3052;0.3662;-91.4941;-14.9414;-56.8817;35.2300 
544.480;0.1650;-1.0161;-0.0103;0.0000;0.3052;0.3662;-91.4941;-14.9194;-56.8323;35.2700 
544.499;0.1650;-1.0161;-0.0103;0.0000;0.3052;0.3662;-91.4941;-14.9030;-56.7828;35.2700 
544.499;0.1650;-1.0161;-0.0103;0.0000;0.3052;0.3662;-91.4941;-14.8810;-56.7279;35.2000 
544.499;0.1641;-1.0171;-0.0098;0.0000;0.0610;0.3662;-91.4941;-14.8645;-56.6785;35.2000 
544.499;0.1641;-1.0171;-0.0098;0.0000;0.0610;0.3662;-91.4941;-14.8425;-56.6290;35.2700 
544.529;0.1641;-1.0171;-0.0098;0.0000;0.0610;0.3662;-91.4941;-14.8260;-56.5796;35.2700 
544.529;0.1641;-1.0171;-0.0098;0.0000;0.0610;0.3662;-91.4886;-14.8041;-56.5247;35.2600 
544.529;0.1641;-1.0171;-0.0098;0.0000;0.0610;0.3662;-91.4886;-14.7876;-56.4752;35.2600 
544.549;0.1641;-1.0171;-0.0098;0.0000;0.0610;0.3662;-91.4886;-14.7711;-56.4258;35.2700 
544.549;0.1641;-1.0171;-0.0098;0.0000;0.0610;0.3662;-91.4886;-14.7491;-56.3763;35.2700 
544.549;0.1641;-1.0171;-0.0098;0.0000;0.0610;0.3662;-91.4886;-14.7327;-56.3214;35.2600 
544.549;0.1641;-1.0171;-0.0098;0.0000;0.0000;0.2441;-91.4886;-14.7107;-56.2720;35.2600 
544.669;0.1641;-1.0171;-0.0098;0.0000;0.0000;0.2441;-91.4886;-14.6942;-56.2225;35.2300 
544.669;0.1641;-1.0171;-0.0098;0.0000;0.0000;0.2441;-91.4886;-14.6777;-56.1731;35.2300 
544.669;0.1641;-1.0171;-0.0098;0.0000;0.0000;0.2441;-91.4886;-14.6613;-56.1182;35.2300 
544.669;0.1641;-1.0171;-0.0098;0.0000;0.0000;0.2441;-91.4886;-14.6393;-56.0687;35.2600 
544.689;0.1641;-1.0171;-0.0098;0.0000;0.0000;0.2441;-91.4886;-14.6228;-56.0193;35.2600 
544.689;0.1641;-1.0171;-0.0098;0.0000;0.0000;0.2441;-91.4886;-14.6063;-55.9698;35.2300 
544.689;0.1641;-1.0171;-0.0098;0.0000;0.0000;0.2441;-91.4886;-14.5898;-55.9149;35.2300 
544.689;0.1636;-1.0171;-0.0103;0.0000;-0.1221;0.1221;-91.4886;-14.5679;-55.8655;35.3000 
544.689;0.1636;-1.0171;-0.0103;0.0000;-0.1221;0.1221;-91.4886;-14.5514;-55.8160;35.3000 
544.689;0.1636;-1.0171;-0.0103;0.0000;-0.1221;0.1221;-91.4886;-14.5349;-55.7666;35.2700 
544.689;0.1636;-1.0171;-0.0103;0.0000;-0.1221;0.1221;-91.4886;-14.5184;-55.7172;35.2700 
544.689;0.1636;-1.0171;-0.0103;0.0000;-0.1221;0.1221;-91.4832;-14.5020;-55.6622;35.2600 
544.689;0.1636;-1.0171;-0.0103;0.0000;-0.1221;0.1221;-91.4832;-14.4855;-55.6128;35.2600 
544.689;0.1636;-1.0171;-0.0103;0.0000;-0.1221;0.1221;-91.4832;-14.4690;-55.5634;35.1400 
544.689;0.1636;-1.0171;-0.0103;0.0000;-0.1221;0.1221;-91.4832;-14.4525;-55.5139;35.1400 
544.689;0.1636;-1.0166;-0.0107;0.0000;-0.1221;0.0610;-91.4832;-14.4360;-55.4645;35.2300 
544.709;0.1636;-1.0166;-0.0107;0.0000;-0.1221;0.0610;-91.4832;-14.4196;-55.4150;35.2300 
544.709;0.1636;-1.0166;-0.0107;0.0000;-0.1221;0.0610;-91.4832;-14.4031;-55.3656;35.1600 
544.709;0.1636;-1.0166;-0.0107;0.0000;-0.1221;0.0610;-91.4832;-14.3866;-55.3162;35.1600 
544.709;0.1636;-1.0166;-0.0107;0.0000;-0.1221;0.0610;-91.4832;-14.3701;-55.2667;35.1600 
544.709;0.1636;-1.0166;-0.0107;0.0000;-0.1221;0.0610;-91.4832;-14.3536;-55.2173;35.2500 
544.709;0.1636;-1.0166;-0.0107;0.0000;-0.1221;0.0610;-91.4832;-14.3372;-55.1678;35.2500 
544.709;0.1636;-1.0166;-0.0107;0.0000;-0.1221;0.0610;-91.4832;-14.3207;-55.1239;35.2300 
544.719;0.1631;-1.0161;-0.0107;0.0000;-0.0610;0.0000;-91.4832;-14.3042;-55.0745;35.2300 
544.719;0.1631;-1.0161;-0.0107;0.0000;-0.0610;0.0000;-91.4832;-14.2877;-55.0250;35.2600 
544.719;0.1631;-1.0161;-0.0107;0.0000;-0.0610;0.0000;-91.4832;-14.2712;-54.9811;35.2600 
544.719;0.1631;-1.0161;-0.0107;0.0000;-0.0610;0.0000;-91.4832;-14.2603;-54.9316;35.2700 
544.729;0.1631;-1.0161;-0.0107;0.0000;-0.0610;0.0000;-91.4832;-14.2438;-54.8877;35.2700 
544.729;0.1631;-1.0161;-0.0107;0.0000;-0.0610;0.0000;-91.4832;-14.2273;-54.8383;35.2900 
544.729;0.1631;-1.0161;-0.0107;0.0000;-0.0610;0.0000;-91.4777;-14.2108;-54.7943;35.2900 
544.729;0.1631;-1.0161;-0.0107;0.0000;-0.0610;0.0000;-91.4777;-14.1943;-54.7504;35.2800 
544.739;0.1636;-1.0156;-0.0112;0.0000;0.0000;0.0000;-91.4777;-14.1779;-54.7064;35.2800 
544.739;0.1636;-1.0156;-0.0112;0.0000;0.0000;0.0000;-91.4777;-14.1669;-54.6570;35.2100 
544.739;0.1636;-1.0156;-0.0112;0.0000;0.0000;0.0000;-91.4777;-14.1504;-54.6130;35.2100 
544.739;0.1636;-1.0156;-0.0112;0.0000;0.0000;0.0000;-91.4777;-14.1339;-54.5691;35.2400 
544.749;0.1636;-1.0156;-0.0112;0.0000;0.0000;0.0000;-91.4777;-14.1174;-54.5251;35.2400 
544.749;0.1636;-1.0156;-0.0112;0.0000;0.0000;0.0000;-91.4777;-14.1064;-54.4812;35.2400 
544.749;0.1636;-1.0156;-0.0112;0.0000;0.0000;0.0000;-91.4777;-14.0900;-54.4373;35.2800 
544.749;0.1636;-1.0156;-0.0112;0.0000;0.0000;0.0000;-91.4722;-14.0735;-54.3878;35.2800 
544.769;0.1636;-1.0151;-0.0112;0.0000;0.0000;0.0000;-91.4722;-14.0570;-54.3439;35.2500 
544.769;0.1636;-1.0151;-0.0112;0.0000;0.0000;0.0000;-91.4722;-14.0460;-54.2999;35.2500 
544.769;0.1636;-1.0151;-0.0112;0.0000;0.0000;0.0000;-91.4722;-14.0295;-54.2560;35.2400 
544.769;0.1636;-1.0151;-0.0112;0.0000;0.0000;0.0000;-91.4722;-14.0131;-54.2120;35.2400 
544.779;0.1636;-1.0151;-0.0112;0.0000;0.0000;0.0000;-91.4722;-14.0021;-54.1626;35.2300 
544.779;0.1636;-1.0151;-0.0112;0.0000;0.0000;0.0000;-91.4722;-13.9856;-54.1187;35.2300 
544.779;0.1636;-1.0151;-0.0112;0.0000;0.0000;0.0000;-91.4722;-13.9691;-54.0747;35.2700 
544.779;0.1636;-1.0151;-0.0112;0.0000;0.0000;0.0000;-91.4722;-13.9581;-54.0308;35.2700 
544.879;0.1641;-1.0151;-0.0112;0.0000;0.0000;0.0000;-91.4667;-13.9417;-53.9868;35.1800 
544.879;0.1641;-1.0151;-0.0112;0.0000;0.0000;0.0000;-91.4667;-13.9252;-53.9429;35.1800 
544.879;0.1641;-1.0151;-0.0112;0.0000;0.0000;0.0000;-91.4667;-13.9142;-53.8989;35.2800 
544.889;0.1641;-1.0151;-0.0112;0.0000;0.0000;0.0000;-91.4667;-13.8977;-53.8550;35.2800 
544.889;0.1641;-1.0151;-0.0112;0.0000;0.0000;0.0000;-91.4667;-13.8812;-53.8110;35.2800 
544.889;0.1641;-1.0151;-0.0112;0.0000;0.0000;0.0000;-91.4667;-13.8702;-53.7671;35.2300 
544.889;0.1641;-1.0151;-0.0112;0.0000;0.0000;0.0000;-91.4667;-13.8538;-53.7231;35.2300 
544.889;0.1641;-1.0151;-0.0112;0.0000;0.0000;0.0000;-91.4667;-13.8428;-53.6792;35.3200 
544.889;0.1641;-1.0151;-0.0112;0.0000;0.0000;0.0000;-91.4612;-13.8263;-53.6353;35.3200 
544.889;0.1641;-1.0151;-0.0112;0.0000;0.0000;0.0000;-91.4612;-13.8098;-53.5968;35.2500 
544.889;0.1641;-1.0151;-0.0112;0.0000;0.0000;0.0000;-91.4612;-13.7988;-53.5529;35.2500 
544.889;0.1641;-1.0151;-0.0112;0.0000;0.0000;0.0000;-91.4612;-13.7823;-53.5089;35.2300 
544.889;0.1641;-1.0151;-0.0112;0.0000;0.0000;0.0000;-91.4612;-13.7714;-53.4650;35.2300 
544.889;0.1641;-1.0151;-0.0112;0.0000;0.0000;0.0000;-91.4612;-13.7549;-53.4265;35.2400 
544.889;0.1641;-1.0151;-0.0112;0.0000;0.0000;0.0000;-91.4612;-13.7439;-53.3826;35.2400 
544.909;0.1641;-1.0151;-0.0112;0.0000;0.0000;0.0000;-91.4557;-13.7274;-53.3386;35.2000 
544.909;0.1641;-1.0156;-0.0112;0.0000;0.0000;0.0000;-91.4557;-13.7164;-53.3002;35.2000 
544.909;0.1641;-1.0156;-0.0112;0.0000;0.0000;0.0000;-91.4557;-13.7000;-53.2562;35.2800 
544.909;0.1641;-1.0156;-0.0112;0.0000;0.0000;0.0000;-91.4557;-13.6890;-53.2178;35.2800 
544.909;0.1641;-1.0156;-0.0112;0.0000;0.0000;0.0000;-91.4557;-13.6725;-53.1738;35.2400 
544.909;0.1641;-1.0156;-0.0112;0.0000;0.0000;0.0000;-91.4557;-13.6615;-53.1354;35.2400 
544.909;0.1641;-1.0156;-0.0112;0.0000;0.0000;0.0000;-91.4557;-13.6450;-53.0914;35.2400 
544.909;0.1641;-1.0156;-0.0112;0.0000;0.0000;0.0000;-91.4502;-13.6340;-53.0530;35.3300 
544.919;0.1641;-1.0156;-0.0112;0.0000;0.0000;0.0000;-91.4502;-13.6176;-53.0145;35.3300 
544.919;0.1641;-1.0161;-0.0112;0.0000;0.0000;0.0000;-91.4502;-13.6066;-52.9706;35.2600 
544.919;0.1641;-1.0161;-0.0112;0.0000;0.0000;0.0000;-91.4502;-13.5901;-52.9321;35.2600 
544.929;0.1641;-1.0161;-0.0112;0.0000;0.0000;0.0000;-91.4502;-13.5791;-52.8882;35.2900 
544.929;0.1641;-1.0161;-0.0112;0.0000;0.0000;0.0000;-91.4502;-13.5626;-52.8497;35.2900 
544.929;0.1641;-1.0161;-0.0112;0.0000;0.0000;0.0000;-91.4447;-13.5516;-52.8113;35.1700 
544.929;0.1641;-1.0161;-0.0112;0.0000;0.0000;0.0000;-91.4447;-13.5406;-52.7673;35.1700 
544.939;0.1641;-1.0161;-0.0112;0.0000;0.0000;0.0000;-91.4447;-13.5242;-52.7289;35.2500 
544.939;0.1641;-1.0161;-0.0112;0.0000;0.0000;0.0000;-91.4447;-13.5132;-52.6849;35.2500 
544.939;0.1636;-1.0161;-0.0112;0.0000;0.0000;0.0000;-91.4447;-13.4967;-52.6465;35.2500 
544.939;0.1636;-1.0161;-0.0112;0.0000;0.0000;0.0000;-91.4447;-13.4857;-52.6080;35.2500 
544.949;0.1636;-1.0161;-0.0112;0.0000;0.0000;0.0000;-91.4392;-13.4692;-52.5696;35.2100 
544.949;0.1636;-1.0161;-0.0112;0.0000;0.0000;0.0000;-91.4392;-13.4583;-52.5256;35.2100 
544.949;0.1636;-1.0161;-0.0112;0.0000;0.0000;0.0000;-91.4392;-13.4473;-52.4872;35.2300 
544.949;0.1636;-1.0161;-0.0112;0.0000;0.0000;0.0000;-91.4392;-13.4308;-52.4487;35.2300 
544.959;0.1636;-1.0161;-0.0112;0.0000;0.0000;0.0000;-91.4392;-13.4198;-52.4103;35.2300 
544.959;0.1636;-1.0161;-0.0112;0.0000;0.0000;0.0000;-91.4392;-13.4088;-52.3718;35.2100 
544.959;0.1636;-1.0161;-0.0107;0.0000;0.0000;0.0000;-91.4337;-13.3923;-52.3279;35.2100 
544.959;0.1636;-1.0161;-0.0107;0.0000;0.0000;0.0000;-91.4337;-13.3813;-52.2894;35.2400 
544.969;0.1636;-1.0161;-0.0107;0.0000;0.0000;0.0000;-91.4337;-13.3649;-52.2510;35.2400 
544.969;0.1636;-1.0161;-0.0107;0.0000;0.0000;0.0000;-91.4337;-13.3539;-52.2125;35.2800 
544.969;0.1636;-1.0161;-0.0107;0.0000;0.0000;0.0000;-91.4337;-13.3429;-52.1741;35.2800 
544.969;0.1636;-1.0161;-0.0107;0.0000;0.0000;0.0000;-91.4282;-13.3264;-52.1356;35.1800 
545.069;0.1636;-1.0161;-0.0107;0.0000;0.0000;0.0000;-91.4282;-13.3154;-52.0917;35.1800 
545.069;0.1636;-1.0161;-0.0107;0.0000;0.0000;0.0000;-91.4282;-13.3044;-52.0532;35.3100 
545.069;0.1636;-1.0161;-0.0107;0.0000;0.0000;0.0000;-91.4282;-13.2880;-52.0148;35.3100 
545.069;0.1636;-1.0161;-0.0107;0.0000;0.0000;0.0000;-91.4282;-13.2770;-51.9763;35.2100 
545.089;0.1636;-1.0161;-0.0107;0.0000;0.0000;0.0000;-91.4227;-13.2660;-51.9379;35.2100 
545.089;0.1636;-1.0161;-0.0107;0.0000;0.0000;0.0000;-91.4227;-13.2550;-51.8994;35.2800 
545.089;0.1636;-1.0161;-0.0107;0.0000;0.0000;0.0000;-91.4227;-13.2385;-51.8610;35.2800 
545.099;0.1636;-1.0161;-0.0107;0.0000;0.0000;0.0000;-91.4227;-13.2275;-51.8225;35.2500 
545.099;0.1636;-1.0161;-0.0107;0.0000;0.0000;0.0000;-91.4227;-13.2166;-51.7841;35.2500 
545.099;0.1636;-1.0161;-0.0107;0.0000;0.0000;0.0000;-91.4172;-13.2056;-51.7456;35.2500 
545.099;0.1636;-1.0161;-0.0107;0.0000;0.0000;0.0000;-91.4172;-13.1891;-51.7072;35.2400