Time;ax;ay;az;wx;wy;wz;AngleX;AngleY;AngleZ;T 
616.615;0.0020;0.0059;0.9932;0.0000;0.0000;0.0000;0.3076;-0.0824;-55.6073;35.2100 
616.615;0.0020;0.0059;0.9932;0.0000;0.0000;0.0000;0.3076;-0.0824;-55.6073;35.2100 
616.615;0.0020;0.0059;0.9932;0.0000;0.0000;0.0000;0.3076;-0.0824;-55.6073;35.2600 
616.615;0.0020;0.0059;0.9932;0.0000;0.0000;0.0000;0.3076;-0.0824;-55.6073;35.2600 
616.615;0.0020;0.0059;0.9932;0.0000;0.0000;0.0000;0.3076;-0.0824;-55.6073;35.2000 
616.615;0.0024;0.0054;0.9932;0.0000;0.0000;0.0000;0.3076;-0.0824;-55.6073;35.2000 
616.615;0.0024;0.0054;0.9932;0.0000;0.0000;0.0000;0.3076;-0.0824;-55.6073;35.2500 
616.615;0.0024;0.0054;0.9932;0.0000;0.0000;0.0000;0.3076;-0.0824;-55.6073;35.2500 
616.615;0.0024;0.0054;0.9932;0.0000;0.0000;0.0000;0.3076;-0.0824;-55.6073;35.2400 
616.615;0.0024;0.0054;0.9932;0.0000;0.0000;0.0000;0.3076;-0.0824;-55.6073;35.2400 
616.615;0.0024;0.0054;0.9932;0.0000;0.0000;0.0000;0.3076;-0.0824;-55.6018;35.2300 
616.615;0.0024;0.0054;0.9932;0.0000;0.0000;0.0000;0.3076;-0.0824;-55.6018;35.2300 
616.615;0.0024;0.0054;0.9932;0.0000;0.0000;0.0000;0.3076;-0.0824;-55.6018;35.2400 
616.635;0.0029;0.0054;0.9937;0.0000;0.0000;0.0000;0.3076;-0.0824;-55.6018;35.2400 
616.635;0.0029;0.0054;0.9937;0.0000;0.0000;0.0000;0.3076;-0.0824;-55.6018;35.1800 
616.635;0.0029;0.0054;0.9937;0.0000;0.0000;0.0000;0.3076;-0.0824;-55.5963;35.1800 
616.635;0.0029;0.0054;0.9937;0.0000;0.0000;0.0000;0.3076;-0.0824;-55.5963;35.1900 
616.635;0.0029;0.0054;0.9937;0.0000;0.0000;0.0000;0.3076;-0.0824;-55.5963;35.1900 
616.635;0.0029;0.0054;0.9937;0.0000;0.0000;0.0000;0.3076;-0.0824;-55.6018;35.1900 
616.635;0.0029;0.0054;0.9937;0.0000;0.0000;0.0000;0.3076;-0.0824;-55.6018;35.1700 
616.635;0.0029;0.0054;0.9937;0.0000;0.0000;0.0000;0.3076;-0.0824;-55.6018;35.1700 
616.645;0.0029;0.0059;0.9932;0.0000;0.0000;0.0000;0.3076;-0.0824;-55.6018;35.2000 
616.645;0.0029;0.0059;0.9932;0.0000;0.0000;0.0000;0.3076;-0.0824;-55.6018;35.2000 
616.655;0.0029;0.0059;0.9932;0.0000;0.0000;0.0000;0.3076;-0.0824;-55.6018;35.2100 
616.675;0.0029;0.0059;0.9932;0.0000;0.0000;0.0000;0.3076;-0.0824;-55.6018;35.2100 
616.675;0.0029;0.0059;0.9932;0.0000;0.0000;0.0000;0.3076;-0.0824;-55.6018;35.2200 
616.675;0.0029;0.0059;0.9932;0.0000;0.0000;0.0000;0.3076;-0.0824;-55.6018;35.2200 
616.675;0.0029;0.0059;0.9932;0.0000;0.0000;0.0000;0.3076;-0.0879;-55.6073;35.1800 
616.685;0.0029;0.0059;0.9932;0.0000;0.0000;0.0000;0.3076;-0.0879;-55.6073;35.1800 
616.685;0.0029;0.0059;0.9937;0.0000;0.0000;0.0610;0.3076;-0.0879;-55.6073;35.2500 
616.695;0.0029;0.0059;0.9937;0.0000;0.0000;0.0610;0.3076;-0.0879;-55.6073;35.2500 
616.695;0.0029;0.0059;0.9937;0.0000;0.0000;0.0610;0.3076;-0.0879;-55.6128;35.2000 
616.705;0.0029;0.0059;0.9937;0.0000;0.0000;0.0610;0.3076;-0.0879;-55.6128;35.2000 
616.705;0.0029;0.0059;0.9937;0.0000;0.0000;0.0610;0.3076;-0.0879;-55.6183;35.2800 
616.795;0.0029;0.0059;0.9937;0.0000;0.0000;0.0610;0.3076;-0.0879;-55.6183;35.2800 
616.795;0.0029;0.0059;0.9937;0.0000;0.0000;0.0610;0.3076;-0.0879;-55.6238;35.2800 
616.805;0.0029;0.0059;0.9937;0.0000;0.0000;0.0610;0.3076;-0.0879;-55.6238;35.1900 
616.805;0.0020;0.0054;0.9932;0.0000;0.0000;0.0610;0.3076;-0.0879;-55.6293;35.1900 
616.805;0.0020;0.0054;0.9932;0.0000;0.0000;0.0610;0.3076;-0.0879;-55.6293;35.1700 
616.805;0.0020;0.0054;0.9932;0.0000;0.0000;0.0610;0.3076;-0.0879;-55.6293;35.1700 
616.805;0.0020;0.0054;0.9932;0.0000;0.0000;0.0610;0.3076;-0.0879;-55.6348;35.2300 
616.805;0.0020;0.0054;0.9932;0.0000;0.0000;0.0610;0.3076;-0.0879;-55.6348;35.2300 
616.805;0.0020;0.0054;0.9932;0.0000;0.0000;0.0610;0.3076;-0.0879;-55.6348;35.3000 
616.805;0.0020;0.0054;0.9932;0.0000;0.0000;0.0610;0.3076;-0.0879;-55.6348;35.3000 
616.805;0.0020;0.0054;0.9932;0.0000;0.0000;0.0610;0.3076;-0.0879;-55.6348;35.1900 
616.805;0.0020;0.0049;0.9932;0.0000;0.0610;0.0610;0.3076;-0.0879;-55.6348;35.1900 
616.805;0.0020;0.0049;0.9932;0.0000;0.0610;0.0610;0.3076;-0.0879;-55.6348;35.2700 
616.805;0.0020;0.0049;0.9932;0.0000;0.0610;0.0610;0.3076;-0.0879;-55.6403;35.2700 
616.805;0.0020;0.0049;0.9932;0.0000;0.0610;0.0610;0.3076;-0.0879;-55.6348;35.2100 
616.805;0.0020;0.0049;0.9932;0.0000;0.0610;0.0610;0.3076;-0.0879;-55.6348;35.2100 
616.815;0.0020;0.0049;0.9932;0.0000;0.0610;0.0610;0.3076;-0.0879;-55.6348;35.2000 
616.815;0.0020;0.0049;0.9932;0.0000;0.0610;0.0610;0.3076;-0.0879;-55.6348;35.2000 
616.815;0.0020;0.0049;0.9932;0.0000;0.0610;0.0610;0.3076;-0.0879;-55.6348;35.2000 
616.825;0.0015;0.0049;0.9927;0.0000;0.0610;0.0610;0.3076;-0.0879;-55.6348;35.2400 
616.825;0.0015;0.0049;0.9927;0.0000;0.0610;0.0610;0.3076;-0.0879;-55.6348;35.2400 
616.825;0.0015;0.0049;0.9927;0.0000;0.0610;0.0610;0.3076;-0.0879;-55.6403;35.2100 
616.825;0.0015;0.0049;0.9927;0.0000;0.0610;0.0610;0.3076;-0.0824;-55.6403;35.2100 
616.835;0.0015;0.0049;0.9927;0.0000;0.0610;0.0610;0.3076;-0.0824;-55.6403;35.1900 
616.835;0.0015;0.0049;0.9927;0.0000;0.0610;0.0610;0.3076;-0.0824;-55.6348;35.1900 
616.855;0.0015;0.0049;0.9927;0.0000;0.0610;0.0610;0.3076;-0.0824;-55.6348;35.2500 
616.855;0.0015;0.0049;0.9927;0.0000;0.0610;0.0610;0.3076;-0.0824;-55.6348;35.2500 
616.875;0.0015;0.0049;0.9927;0.0000;0.0610;0.0610;0.3076;-0.0824;-55.6348;35.1800 
616.875;0.0015;0.0049;0.9927;0.0000;0.0610;0.0610;0.3076;-0.0824;-55.6348;35.1800 
616.875;0.0015;0.0049;0.9927;0.0000;0.0610;0.0610;0.3076;-0.0824;-55.6293;35.2200 
616.875;0.0015;0.0049;0.9927;0.0000;0.0610;0.0610;0.3076;-0.0824;-55.6293;35.2200 
616.875;0.0015;0.0049;0.9927;0.0000;0.0610;0.0610;0.3076;-0.0824;-55.6293;35.2500 
616.875;0.0015;0.0049;0.9927;0.0000;0.0610;0.0610;0.3076;-0.0824;-55.6238;35.2500 
616.885;0.0015;0.0049;0.9927;0.0000;0.0610;0.0610;0.3076;-0.0824;-55.6238;35.2500 
616.885;0.0015;0.0049;0.9927;0.0000;0.0610;0.0610;0.3076;-0.0824;-55.6238;35.2300 
616.895;0.0010;0.0049;0.9922;0.0000;0.0610;0.0000;0.3076;-0.0824;-55.6238;35.2300 
616.895;0.0010;0.0049;0.9922;0.0000;0.0610;0.0000;0.3076;-0.0824;-55.6238;35.2300 
616.895;0.0010;0.0049;0.9922;0.0000;0.0610;0.0000;0.3076;-0.0824;-55.6183;35.2300 
616.895;0.0010;0.0049;0.9922;0.0000;0.0610;0.0000;0.3076;-0.0769;-55.6183;35.1800 
616.905;0.0010;0.0049;0.9922;0.0000;0.0610;0.0000;0.3076;-0.0769;-55.6183;35.1800 
616.905;0.0010;0.0049;0.9922;0.0000;0.0610;0.0000;0.3076;-0.0769;-55.6183;35.2900 
616.985;0.0010;0.0049;0.9922;0.0000;0.0000;0.0000;0.3076;-0.0769;-55.6183;35.2900 
616.995;0.0010;0.0049;0.9922;0.0000;0.0000;0.0000;0.3076;-0.0769;-55.6183;35.1900 
616.995;0.0020;0.0049;0.9932;0.0000;0.0000;0.0000;0.3076;-0.0769;-55.6183;35.1900 
616.995;0.0020;0.0049;0.9932;0.0000;0.0000;0.0000;0.3076;-0.0769;-55.6183;35.1800 
617.005;0.0020;0.0049;0.9932;0.0000;0.0000;0.0000;0.3076;-0.0769;-55.6128;35.1800 
617.005;0.0020;0.0049;0.9932;0.0000;0.0000;0.0000;0.3076;-0.0769;-55.6128;35.2000 
617.005;0.0020;0.0049;0.9932;0.0000;0.0000;0.0000;0.3076;-0.0769;-55.6128;35.2000 
617.005;0.0020;0.0049;0.9932;0.0000;0.0000;0.0000;0.3076;-0.0769;-55.6128;35.2400 
617.005;0.0020;0.0049;0.9932;0.0000;0.0000;0.0000;0.3076;-0.0769;-55.6128;35.2400 
617.005;0.0020;0.0049;0.9932;0.0000;0.0000;0.0000;0.3076;-0.0769;-55.6128;35.2400 
617.005;0.0015;0.0049;0.9927;0.0000;0.0000;0.0000;0.3076;-0.0769;-55.6128;35.1900 
617.005;0.0015;0.0049;0.9927;0.0000;0.0000;0.0000;0.3076;-0.0769;-55.6128;35.1900 
617.005;0.0015;0.0049;0.9927;0.0000;0.0000;0.0000;0.3076;-0.0769;-55.6128;35.2300 
617.005;0.0015;0.0049;0.9927;0.0000;0.0000;0.0000;0.3076;-0.0769;-55.6128;35.2300 
617.005;0.0015;0.0049;0.9927;0.0000;0.0000;0.0000;0.3076;-0.0769;-55.6128;35.2900 
617.005;0.0015;0.0049;0.9927;0.0000;0.0000;0.0000;0.3076;-0.0769;-55.6183;35.2900 
617.005;0.0015;0.0049;0.9927;0.0000;0.0000;0.0000;0.3076;-0.0769;-55.6183;35.2800 
617.015;0.0015;0.0049;0.9927;0.0000;0.0000;0.0000;0.3076;-0.0769;-55.6183;35.2800 
617.015;0.0020;0.0049;0.9932;0.0000;0.0000;0.0000;0.3076;-0.0769;-55.6183;35.2200 
617.015;0.0020;0.0049;0.9932;0.0000;0.0000;0.0000;0.3076;-0.0769;-55.6183;35.2200 
617.015;0.0020;0.0049;0.9932;0.0000;0.0000;0.0000;0.3076;-0.0769;-55.6128;35.2100 
617.025;0.0020;0.0049;0.9932;0.0000;0.0000;0.0000;0.3076;-0.0824;-55.6128;35.2100 
617.025;0.0020;0.0049;0.9932;0.0000;0.0000;0.0000;0.3076;-0.0824;-55.6128;35.1700 
617.035;0.0020;0.0049;0.9932;0.0000;0.0000;0.0000;0.3076;-0.0824;-55.6128;35.1700 
617.035;0.0020;0.0049;0.9932;0.0000;0.0000;0.0000;0.3076;-0.0824;-55.6128;35.2200 
617.045;0.0020;0.0049;0.9932;0.0000;0.0000;0.0000;0.3076;-0.0824;-55.6073;35.2200 
617.045;0.0015;0.0049;0.9927;0.0000;0.0000;0.0000;0.3076;-0.0824;-55.6073;35.2200 
617.055;0.0015;0.0049;0.9927;0.0000;0.0000;0.0000;0.3076;-0.0824;-55.6073;35.2500 
617.055;0.0015;0.0049;0.9927;0.0000;0.0000;0.0000;0.3076;-0.0824;-55.6073;35.2500 
617.065;0.0015;0.0049;0.9927;0.0000;0.0000;0.0000;0.3076;-0.0824;-55.6073;35.2100 
617.065;0.0015;0.0049;0.9927;0.0000;0.0000;0.0000;0.3076;-0.0824;-55.6073;35.2100 
617.075;0.0015;0.0049;0.9927;0.0000;0.0000;0.0000;0.3076;-0.0824;-55.6073;35.2600 
617.075;0.0015;0.0049;0.9927;0.0000;0.0000;0.0000;0.3076;-0.0824;-55.6073;35.2600 
617.095;0.0015;0.0049;0.9927;0.0000;0.0000;0.0000;0.3076;-0.0824;-55.6073;35.1900 
617.095;0.0024;0.0049;0.9937;0.0000;0.0000;0.0000;0.3021;-0.0824;-55.6073;35.1900 
617.195;0.0024;0.0049;0.9937;0.0000;0.0000;0.0000;0.3021;-0.0824;-55.6073;35.2400 
617.195;0.0024;0.0049;0.9937;0.0000;0.0000;0.0000;0.3021;-0.0824;-55.6073;35.2400 
617.195;0.0024;0.0049;0.9937;0.0000;0.0000;0.0000;0.3021;-0.0824;-55.6073;35.2600 
617.195;0.0024;0.0049;0.9937;0.0000;0.0000;0.0000;0.3021;-0.0824;-55.6073;35.2600 
617.195;0.0024;0.0049;0.9937;0.0000;0.0000;0.0000;0.3021;-0.0824;-55.6128;35.2500 
617.205;0.0024;0.0049;0.9937;0.0000;0.0000;0.0000;0.3021;-0.0824;-55.6128;35.2500 
617.205;0.0024;0.0049;0.9937;0.0000;0.0000;0.0000;0.3021;-0.0824;-55.6128;35.1800 
617.205;0.0015;0.0049;0.9927;0.0000;0.0000;0.0000;0.3021;-0.0824;-55.6183;35.1800 
617.205;0.0015;0.0049;0.9927;0.0000;0.0000;0.0000;0.3021;-0.0824;-55.6183;35.1800 
617.205;0.0015;0.0049;0.9927;0.0000;0.0000;0.0000;0.3021;-0.0824;-55.6183;35.2100 
617.205;0.0015;0.0049;0.9927;0.0000;0.0000;0.0000;0.3021;-0.0824;-55.6183;35.2100 
617.205;0.0015;0.0049;0.9927;0.0000;0.0000;0.0000;0.3021;-0.0824;-55.6183;35.1800 
617.205;0.0015;0.0049;0.9927;0.0000;0.0000;0.0000;0.3021;-0.0824;-55.6238;35.1800 
617.205;0.0015;0.0049;0.9927;0.0000;0.0000;0.0000;0.3021;-0.0824;-55.6238;35.1700 
617.205;0.0015;0.0049;0.9927;0.0000;0.0000;0.0000;0.3021;-0.0824;-55.6183;35.1700 
617.205;0.0024;0.0049;0.9937;0.0000;0.0000;0.0000;0.3021;-0.0824;-55.6183;35.2100 
617.205;0.0024;0.0049;0.9937;0.0000;0.0000;0.0000;0.3021;-0.0824;-55.6183;35.2100 
617.205;0.0024;0.0049;0.9937;0.0000;0.0000;0.0000;0.3021;-0.0824;-55.6183;35.2600 
617.205;0.0024;0.0049;0.9937;0.0000;0.0000;0.0000;0.3021;-0.0824;-55.6128;35.2600 
617.205;0.0024;0.0049;0.9937;0.0000;0.0000;0.0000;0.3021;-0.0824;-55.6128;35.2000 
617.205;0.0024;0.0049;0.9937;0.0000;0.0000;0.0000;0.3021;-0.0824;-55.6128;35.2000 
617.225;0.0024;0.0049;0.9937;0.0000;0.0000;0.0000;0.3021;-0.0824;-55.6128;35.3100 
617.225;0.0024;0.0049;0.9937;0.0000;0.0000;0.0000;0.3021;-0.0824;-55.6073;35.3100 
617.225;0.0015;0.0049;0.9932;0.0000;0.0000;0.0000;0.3021;-0.0824;-55.6073;35.3100 
617.225;0.0015;0.0049;0.9932;0.0000;0.0000;0.0000;0.3021;-0.0824;-55.6073;35.3100 
617.225;0.0015;0.0049;0.9932;0.0000;0.0000;0.0000;0.3021;-0.0824;-55.6018;35.3100 
617.225;0.0015;0.0049;0.9932;0.0000;0.0000;0.0000;0.3021;-0.0824;-55.6018;35.1700 
617.245;0.0015;0.0049;0.9932;0.0000;0.0000;0.0000;0.3021;-0.0824;-55.5963;35.1700 
617.245;0.0015;0.0049;0.9932;0.0000;0.0000;0.0000;0.3021;-0.0824;-55.5963;35.2000 
617.245;0.0015;0.0049;0.9932;0.0000;0.0000;0.0000;0.3021;-0.0824;-55.5963;35.2000 
617.245;0.0015;0.0049;0.9932;0.0000;0.0000;0.0000;0.3021;-0.0824;-55.5908;35.2500 
617.255;0.0024;0.0049;0.9937;0.0000;0.0000;0.0000;0.3021;-0.0824;-55.5908;35.2500 
617.255;0.0024;0.0049;0.9937;0.0000;0.0000;0.0000;0.3021;-0.0824;-55.5853;35.2200 
617.265;0.0024;0.0049;0.9937;0.0000;0.0000;0.0000;0.3021;-0.0824;-55.5853;35.2200 
617.265;0.0024;0.0049;0.9937;0.0000;0.0000;0.0000;0.3021;-0.0824;-55.5853;35.1800 
617.265;0.0024;0.0049;0.9937;0.0000;0.0000;0.0000;0.3021;-0.0824;-55.5853;35.1800 
617.275;0.0024;0.0049;0.9937;0.0000;0.0000;0.0000;0.3021;-0.0824;-55.5853;35.2200 
617.275;0.0024;0.0049;0.9937;0.0000;0.0000;0.0000;0.3021;-0.0824;-55.5798;35.2200 
617.285;0.0024;0.0049;0.9937;0.0000;0.0000;0.0000;0.3021;-0.0824;-55.5798;35.2200 
617.285;0.0015;0.0054;0.9932;0.0000;0.0000;0.0000;0.3021;-0.0824;-55.5798;35.2200 
617.295;0.0015;0.0054;0.9932;0.0000;0.0000;0.0000;0.3021;-0.0824;-55.5798;35.2200 
617.295;0.0015;0.0054;0.9932;0.0000;0.0000;0.0000;0.3021;-0.0824;-55.5743;35.2400 
617.305;0.0015;0.0054;0.9932;0.0000;0.0000;0.0000;0.3021;-0.0824;-55.5743;35.2400 
617.305;0.0015;0.0054;0.9932;0.0000;0.0000;0.0000;0.3021;-0.0824;-55.5743;35.2100 
617.395;0.0015;0.0054;0.9932;0.0000;0.0000;0.0000;0.3021;-0.0824;-55.5743;35.2100 
617.395;0.0015;0.0054;0.9932;0.0000;0.0000;0.0000;0.3021;-0.0824;-55.5743;35.2500 
617.405;0.0015;0.0054;0.9932;0.0000;0.0000;0.0000;0.3021;-0.0824;-55.5743;35.2500 
617.405;0.0024;0.0054;0.9937;0.0000;0.0000;0.0000;0.3021;-0.0824;-55.5743;35.2300 
617.405;0.0024;0.0054;0.9937;0.0000;0.0000;0.0000;0.3021;-0.0824;-55.5743;35.2300 
617.405;0.0024;0.0054;0.9937;0.0000;0.0000;0.0000;0.3021;-0.0824;-55.5743;35.2600 
617.405;0.0024;0.0054;0.9937;0.0000;0.0000;0.0000;0.3021;-0.0824;-55.5743;35.2600 
617.405;0.0024;0.0054;0.9937;0.0000;0.0000;0.0000;0.3021;-0.0824;-55.5743;35.1800 
617.405;0.0024;0.0054;0.9937;0.0000;0.0000;0.0000;0.3021;-0.0824;-55.5743;35.1800 
617.405;0.0024;0.0054;0.9937;0.0000;0.0000;0.0000;0.3021;-0.0824;-55.5743;35.2500 
617.405;0.0024;0.0054;0.9937;0.0000;0.0000;0.0000;0.3021;-0.0824;-55.5743;35.2500 
617.405;0.0015;0.0059;0.9932;0.0000;0.0000;0.0000;0.3021;-0.0824;-55.5743;35.1800 
617.405;0.0015;0.0059;0.9932;0.0000;0.0000;0.0000;0.3021;-0.0824;-55.5743;35.1800 
617.405;0.0015;0.0059;0.9932;0.0000;0.0000;0.0000;0.3021;-0.0824;-55.5743;35.1800 
617.405;0.0015;0.0059;0.9932;0.0000;0.0000;0.0000;0.3021;-0.0824;-55.5743;35.1800 
617.405;0.0015;0.0059;0.9932;0.0000;0.0000;0.0000;0.3021;-0.0824;-55.5743;35.1800 
617.405;0.0015;0.0059;0.9932;0.0000;0.0000;0.0000;0.3021;-0.0824;-55.5743;35.2800 
617.405;0.0015;0.0059;0.9932;0.0000;0.0000;0.0000;0.3021;-0.0824;-55.5743;35.2800 
617.405;0.0015;0.0059;0.9932;0.0000;0.0000;0.0000;0.3021;-0.0824;-55.5688;35.2800 
617.405;0.0024;0.0054;0.9937;0.0000;0.0000;0.0000;0.3021;-0.0824;-55.5688;35.2800 
617.425;0.0024;0.0054;0.9937;0.0000;0.0000;0.0000;0.3021;-0.0879;-55.5688;35.2400 
617.425;0.0024;0.0054;0.9937;0.0000;0.0000;0.0000;0.3021;-0.0879;-55.5688;35.2400 
617.425;0.0024;0.0054;0.9937;0.0000;0.0000;0.0000;0.3021;-0.0879;-55.5688;35.2600 
617.445;0.0024;0.0054;0.9937;0.0000;0.0000;0.0000;0.3021;-0.0879;-55.5688;35.2600 
617.445;0.0024;0.0054;0.9937;0.0000;0.0000;0.0000;0.3021;-0.0879;-55.5688;35.2400 
617.485;0.0024;0.0054;0.9937;0.0000;0.0000;0.0000;0.3021;-0.0879;-55.5634;35.2400 
617.485;0.0024;0.0054;0.9937;0.0000;0.0000;0.0000;0.3021;-0.0879;-55.5634;35.2500 
617.505;0.0015;0.0059;0.9937;0.0000;0.0000;0.0000;0.3021;-0.0879;-55.5634;35.2500 
617.505;0.0015;0.0059;0.9937;0.0000;0.0000;0.0000;0.3021;-0.0879;-55.5634;35.2000 
617.505;0.0015;0.0059;0.9937;0.0000;0.0000;0.0000;0.3076;-0.0879;-55.5634;35.2000 
617.505;0.0015;0.0059;0.9937;0.0000;0.0000;0.0000;0.3076;-0.0879;-55.5634;35.2000 
617.505;0.0015;0.0059;0.9937;0.0000;0.0000;0.0000;0.3076;-0.0879;-55.5634;35.2400 
617.505;0.0015;0.0059;0.9937;0.0000;0.0000;0.0000;0.3076;-0.0879;-55.5634;35.2400 
617.505;0.0015;0.0059;0.9937;0.0000;0.0000;0.0000;0.3076;-0.0879;-55.5688;35.2100 
617.505;0.0015;0.0059;0.9937;0.0000;0.0000;0.0000;0.3076;-0.0879;-55.5688;35.2100 
617.505;0.0020;0.0054;0.9941;0.0000;0.0000;0.0000;0.3076;-0.0879;-55.5688;35.3000 
617.505;0.0020;0.0054;0.9941;0.0000;0.0000;0.0000;0.3076;-0.0879;-55.5688;35.3000 
617.505;0.0020;0.0054;0.9941;0.0000;0.0000;0.0000;0.3076;-0.0879;-55.5688;35.2400 
617.505;0.0020;0.0054;0.9941;0.0000;0.0000;0.0000;0.3076;-0.0879;-55.5743;35.2400 
617.595;0.0020;0.0054;0.9941;0.0000;0.0000;0.0000;0.3076;-0.0879;-55.5743;35.2500 
617.595;0.0020;0.0054;0.9941;0.0000;0.0000;0.0000;0.3076;-0.0879;-55.5798;35.2500 
617.615;0.0020;0.0054;0.9941;0.0000;0.0000;0.0000;0.3076;-0.0879;-55.5798;35.2500 
617.615;0.0020;0.0054;0.9941;0.0000;0.0000;0.0000;0.3076;-0.0879;-55.5798;35.2500 
617.615;0.0015;0.0054;0.9937;0.0000;0.0000;0.0000;0.3076;-0.0879;-55.5798;35.2700 
617.615;0.0015;0.0054;0.9937;0.0000;0.0000;0.0000;0.3076;-0.0879;-55.5853;35.2700 
617.615;0.0015;0.0054;0.9937;0.0000;0.0000;0.0000;0.3076;-0.0879;-55.5853;35.2700 
617.615;0.0015;0.0054;0.9937;0.0000;0.0000;0.0000;0.3076;-0.0879;-55.5853;35.2700 
617.615;0.0015;0.0054;0.9937;0.0000;0.0000;0.0000;0.3076;-0.0879;-55.5853;35.2700 
617.615;0.0015;0.0054;0.9937;0.0000;0.0000;0.0000;0.3076;-0.0879;-55.5798;35.2300 
617.615;0.0015;0.0054;0.9937;0.0000;0.0000;0.0000;0.3076;-0.0879;-55.5798;35.2300 
617.615;0.0015;0.0054;0.9937;0.0000;0.0000;0.0000;0.3076;-0.0879;-55.5798;35.1800 
617.615;0.0015;0.0054;0.9941;0.0000;0.0000;0.0000;0.3076;-0.0879;-55.5798;35.1800 
617.615;0.0015;0.0054;0.9941;0.0000;0.0000;0.0000;0.3076;-0.0879;-55.5743;35.2200 
617.615;0.0015;0.0054;0.9941;0.0000;0.0000;0.0000;0.3076;-0.0879;-55.5743;35.2200 
617.615;0.0015;0.0054;0.9941;0.0000;0.0000;0.0000;0.3076;-0.0879;-55.5743;35.2500 
617.615;0.0015;0.0054;0.9941;0.0000;0.0000;0.0000;0.3076;-0.0879;-55.5743;35.2500 
617.615;0.0015;0.0054;0.9941;0.0000;0.0000;0.0000;0.3076;-0.0879;-55.5743;35.1700 
617.615;0.0015;0.0054;0.9941;0.0000;0.0000;0.0000;0.3076;-0.0879;-55.5743;35.1700 
617.615;0.0015;0.0054;0.9941;0.0000;0.0000;0.0000;0.3076;-0.0879;-55.5743;35.1700 
617.615;0.0010;0.0059;0.9941;0.0000;0.0000;0.0000;0.3076;-0.0879;-55.5743;35.1700 
617.615;0.0010;0.0059;0.9941;0.0000;0.0000;0.0000;0.3076;-0.0879;-55.5743;35.2800 
617.615;0.0010;0.0059;0.9941;0.0000;0.0000;0.0000;0.3076;-0.0879;-55.5743;35.2800 
617.625;0.0010;0.0059;0.9941;0.0000;0.0000;0.0000;0.3076;-0.0879;-55.5743;35.2800 
617.625;0.0010;0.0059;0.9941;0.0000;0.0000;0.0000;0.3076;-0.0879;-55.5798;35.2100 
617.635;0.0010;0.0059;0.9941;0.0000;0.0000;0.0000;0.3076;-0.0879;-55.5798;35.2100 
617.635;0.0010;0.0059;0.9941;0.0000;0.0000;0.0000;0.3076;-0.0879;-55.5798;35.2100 
617.645;0.0010;0.0059;0.9941;0.0000;0.0000;0.0000;0.3076;-0.0879;-55.5798;35.2100 
617.645;0.0015;0.0059;0.9941;0.0000;0.0000;0.0000;0.3076;-0.0879;-55.5798;35.2400 
617.655;0.0015;0.0059;0.9941;0.0000;0.0000;0.0000;0.3076;-0.0879;-55.5798;35.2400 
617.655;0.0015;0.0059;0.9941;0.0000;0.0000;0.0000;0.3076;-0.0879;-55.5798;35.1200 
617.675;0.0015;0.0059;0.9941;0.0000;0.0000;0.0000;0.3076;-0.0879;-55.5853;35.1200 
617.675;0.0015;0.0059;0.9941;0.0000;0.0000;0.0000;0.3076;-0.0879;-55.5853;35.2700 
617.685;0.0015;0.0059;0.9941;0.0000;0.0000;0.0000;0.3076;-0.0879;-55.5798;35.2700 
617.685;0.0015;0.0059;0.9941;0.0000;0.0000;0.0000;0.3076;-0.0879;-55.5798;35.3100 
617.705;0.0015;0.0059;0.9941;0.0000;0.0000;0.0000;0.3076;-0.0879;-55.5798;35.3100 
617.705;0.0015;0.0059;0.9937;0.0000;0.0000;0.0000;0.3076;-0.0879;-55.5798;35.2300 
617.705;0.0015;0.0059;0.9937;0.0000;0.0000;0.0000;0.3076;-0.0879;-55.5798;35.2300 
617.705;0.0015;0.0059;0.9937;0.0000;0.0000;0.0000;0.3076;-0.0879;-55.5853;35.2600 
617.705;0.0015;0.0059;0.9937;0.0000;0.0000;0.0000;0.3076;-0.0879;-55.5853;35.2600 
617.705;0.0015;0.0059;0.9937;0.0000;0.0000;0.0000;0.3076;-0.0879;-55.5853;35.2600 
617.814;0.0015;0.0059;0.9937;0.0000;0.0000;0.0000;0.3076;-0.0879;-55.5853;35.1900 
617.814;0.0015;0.0059;0.9937;0.0000;0.0000;0.0000;0.3076;-0.0879;-55.5908;35.1900 
617.824;0.0015;0.0059;0.9937;0.0000;0.0000;0.0000;0.3076;-0.0879;-55.5908;35.2600 
617.824;0.0020;0.0054;0.9932;0.0000;0.0000;0.0000;0.3076;-0.0879;-55.5908;35.2600 
617.824;0.0020;0.0054;0.9932;0.0000;0.0000;0.0000;0.3076;-0.0879;-55.5908;35.2700 
617.824;0.0020;0.0054;0.9932;0.0000;0.0000;0.0000;0.3076;-0.0879;-55.5908;35.2700 
617.824;0.0020;0.0054;0.9932;0.0000;0.0000;0.0000;0.3076;-0.0879;-55.5963;35.2400 
617.824;0.0020;0.0054;0.9932;0.0000;0.0000;0.0000;0.3076;-0.0879;-55.5963;35.2400 
617.824;0.0020;0.0054;0.9932;0.0000;0.0000;0.0000;0.3076;-0.0879;-55.5963;35.2400 
617.824;0.0020;0.0054;0.9932;0.0000;0.0000;0.0000;0.3076;-0.0879;-55.5963;35.2400 
617.824;0.0020;0.0054;0.9932;0.0000;0.0000;0.0000;0.3076;-0.0879;-55.5963;35.1700 
617.824;0.0015;0.0054;0.9927;0.0000;0.0000;0.0000;0.3076;-0.0879;-55.5963;35.1700 
617.824;0.0015;0.0054;0.9927;0.0000;0.0000;0.0000;0.3076;-0.0879;-55.5963;35.2300 
617.824;0.0015;0.0054;0.9927;0.0000;0.0000;0.0000;0.3076;-0.0879;-55.6018;35.2300 
617.824;0.0015;0.0054;0.9927;0.0000;0.0000;0.0000;0.3076;-0.0879;-55.6018;35.1900 
617.824;0.0015;0.0054;0.9927;0.0000;0.0000;0.0000;0.3076;-0.0879;-55.6018;35.1900 
617.824;0.0015;0.0054;0.9927;0.0000;0.0000;0.0000;0.3076;-0.0879;-55.6018;35.1900 
617.824;0.0015;0.0054;0.9927;0.0000;0.0000;0.0000;0.3076;-0.0879;-55.6073;35.1400 
617.824;0.0015;0.0054;0.9927;0.0000;0.0000;0.0000;0.3076;-0.0879;-55.6073;35.1400 
617.824;0.0020;0.0054;0.9927;0.0000;0.0000;0.0000;0.3076;-0.0879;-55.6073;35.2200 
617.824;0.0020;0.0054;0.9927;0.0000;0.0000;0.0000;0.3076;-0.0879;-55.6073;35.2200 
617.824;0.0020;0.0054;0.9927;0.0000;0.0000;0.0000;0.3076;-0.0879;-55.6073;35.2400 
617.824;0.0020;0.0054;0.9927;0.0000;0.0000;0.0000;0.3076;-0.0879;-55.6073;35.2400 
617.834;0.0020;0.0054;0.9927;0.0000;0.0000;0.0000;0.3076;-0.0879;-55.6073;35.1900 
617.834;0.0020;0.0054;0.9927;0.0000;0.0000;0.0000;0.3076;-0.0879;-55.6073;35.1900 
617.844;0.0020;0.0054;0.9927;0.0000;0.0000;0.0000;0.3076;-0.0879;-55.6073;35.1800 
617.844;0.0020;0.0054;0.9927;0.0000;0.0000;0.0000;0.3076;-0.0879;-55.6128;35.1800 
617.854;0.0010;0.0054;0.9927;0.0000;0.0000;0.0000;0.3076;-0.0879;-55.6128;35.2100 
617.854;0.0010;0.0054;0.9927;0.0000;0.0000;0.0000;0.3076;-0.0879;-55.6128;35.2100 
617.864;0.0010;0.0054;0.9927;0.0000;0.0000;0.0000;0.3076;-0.0879;-55.6128;35.2400 
617.864;0.0010;0.0054;0.9927;0.0000;0.0000;0.0000;0.3076;-0.0879;-55.6128;35.2400 
617.874;0.0010;0.0054;0.9927;0.0000;0.0000;0.0000;0.3076;-0.0879;-55.6128;35.1900 
617.874;0.0010;0.0054;0.9927;0.0000;0.0000;0.0000;0.3076;-0.0879;-55.6128;35.1900 
617.884;0.0010;0.0054;0.9927;0.0000;0.0000;0.0000;0.3076;-0.0879;-55.6128;35.1900 
617.884;0.0010;0.0054;0.9927;0.0000;0.0000;0.0000;0.3076;-0.0879;-55.6183;35.1600 
617.894;0.0010;0.0059;0.9927;0.0000;0.0000;0.0000;0.3076;-0.0879;-55.6183;35.1600 
617.894;0.0010;0.0059;0.9927;0.0000;0.0000;0.0000;0.3076;-0.0879;-55.6183;35.1700 
617.904;0.0010;0.0059;0.9927;0.0000;0.0000;0.0000;0.3076;-0.0824;-55.6183;35.1700 
617.904;0.0010;0.0059;0.9927;0.0000;0.0000;0.0000;0.3076;-0.0824;-55.6183;35.2800 
617.914;0.0010;0.0059;0.9927;0.0000;0.0000;0.0000;0.3076;-0.0824;-55.6183;35.2800 
617.914;0.0010;0.0059;0.9927;0.0000;0.0000;0.0000;0.3076;-0.0824;-55.6183;35.2300 
618.014;0.0010;0.0059;0.9927;0.0000;0.0000;0.0000;0.3076;-0.0824;-55.6183;35.2300 
618.014;0.0010;0.0059;0.9927;0.0000;0.0000;0.0000;0.3076;-0.0824;-55.6183;35.2800 
618.014;0.0015;0.0059;0.9932;0.0000;0.0000;0.0000;0.3076;-0.0824;-55.6238;35.2800 
618.034;0.0015;0.0059;0.9932;0.0000;0.0000;0.0000;0.3076;-0.0824;-55.6238;35.2800 
618.034;0.0015;0.0059;0.9932;0.0000;0.0000;0.0000;0.3076;-0.0824;-55.6238;35.2800 
618.034;0.0015;0.0059;0.9932;0.0000;0.0000;0.0000;0.3131;-0.0824;-55.6238;35.2600 
618.034;0.0015;0.0059;0.9932;0.0000;0.0000;0.0000;0.3131;-0.0824;-55.6293;35.2600 
618.034;0.0015;0.0059;0.9932;0.0000;0.0000;0.0000;0.3131;-0.0824;-55.6293;35.3200 
618.034;0.0015;0.0059;0.9932;0.0000;0.0000;0.0000;0.3131;-0.0824;-55.6293;35.3200 
618.034;0.0015;0.0059;0.9932;0.0000;0.0000;0.0000;0.3131;-0.0824;-55.6293;35.3200 
618.034;0.0010;0.0059;0.9932;0.0000;0.0000;0.0000;0.3131;-0.0824;-55.6293;35.2100 
618.034;0.0010;0.0059;0.9932;0.0000;0.0000;0.0000;0.3131;-0.0824;-55.6348;35.2100 
618.034;0.0010;0.0059;0.9932;0.0000;0.0000;0.0000;0.3131;-0.0824;-55.6348;35.2100 
618.034;0.0010;0.0059;0.9932;0.0000;0.0000;0.0000;0.3131;-0.0824;-55.6348;35.2100 
618.034;0.0010;0.0059;0.9932;0.0000;0.0000;0.0000;0.3131;-0.0824;-55.6348;35.2300 
618.034;0.0010;0.0059;0.9932;0.0000;0.0000;0.0000;0.3131;-0.0824;-55.6348;35.2300 
618.034;0.0010;0.0059;0.9932;0.0000;0.0000;0.0000;0.3131;-0.0824;-55.6403;35.2300 
618.034;0.0010;0.0059;0.9932;0.0000;0.0000;0.0000;0.3131;-0.0824;-55.6403;35.2300 
618.034;0.0020;0.0059;0.9937;0.0000;0.0000;0.0000;0.3131;-0.0824;-55.6403;35.2300 
618.034;0.0020;0.0059;0.9937;0.0000;0.0000;0.0000;0.3131;-0.0824;-55.6403;35.2300 
618.034;0.0020;0.0059;0.9937;0.0000;0.0000;0.0000;0.3131;-0.0824;-55.6403;35.2600 
618.054;0.0020;0.0059;0.9937;0.0000;0.0000;0.0000;0.3131;-0.0824;-55.6403;35.2600 
618.054;0.0020;0.0059;0.9937;0.0000;0.0000;0.0000;0.3131;-0.0824;-55.6458;35.2200 
618.054;0.0020;0.0059;0.9937;0.0000;0.0000;0.0000;0.3131;-0.0824;-55.6458;35.2200 
618.054;0.0020;0.0059;0.9937;0.0000;0.0000;0.0000;0.3131;-0.0824;-55.6458;35.2200 
618.054;0.0020;0.0059;0.9937;0.0000;0.0000;0.0000;0.3131;-0.0824;-55.6512;35.2900 
618.054;0.0024;0.0044;0.9937;0.0000;0.0000;0.0000;0.3131;-0.0824;-55.6512;35.2900 
618.054;0.0024;0.0044;0.9937;0.0000;0.0000;0.0000;0.3131;-0.0824;-55.6512;35.2500 
618.054;0.0024;0.0044;0.9937;0.0000;0.0000;0.0000;0.3131;-0.0824;-55.6567;35.2500 
618.064;0.0024;0.0044;0.9937;0.0000;0.0000;0.0000;0.3131;-0.0824;-55.6567;35.2700 
618.064;0.0024;0.0044;0.9937;0.0000;0.0000;0.0000;0.3131;-0.0824;-55.6567;35.2700 
618.094;0.0024;0.0044;0.9937;0.0000;0.0000;0.0000;0.3131;-0.0879;-55.6567;35.1900 
618.094;0.0024;0.0044;0.9937;0.0000;0.0000;0.0000;0.3131;-0.0879;-55.6622;35.1900 
618.114;0.0024;0.0044;0.9937;0.0000;0.0000;0.0000;0.3131;-0.0879;-55.6622;35.2300 
618.114;-0.2822;-0.0127;1.0376;0.0000;0.0000;0.0000;0.3076;-0.0385;-55.6622;35.2300 
618.114;-0.2822;-0.0127;1.0376;0.0000;0.0000;0.0000;0.3076;0.0000;-55.6622;35.1900 
618.114;-0.2822;-0.0127;1.0376;0.0000;0.0000;0.0000;0.3021;0.0439;-55.6567;35.1900 
618.114;-0.2822;-0.0127;1.0376;0.0000;0.0000;0.0000;0.2966;0.0934;-55.6567;35.1800 
618.114;-0.2822;-0.0127;1.0376;0.0000;0.0000;0.0000;0.2966;0.1373;-55.6567;35.1800 
618.114;-0.2822;-0.0127;1.0376;0.0000;0.0000;0.0000;0.2911;0.1813;-55.6567;35.3000 
618.214;-0.2822;-0.0127;1.0376;0.0000;0.0000;0.0000;0.2911;0.2252;-55.6512;35.3000 
618.214;-0.2822;-0.0127;1.0376;0.0000;0.0000;0.0000;0.2856;0.2692;-55.6512;35.3000 
618.214;-0.6689;-0.0195;1.0068;-0.4883;1.0376;0.8545;0.2747;0.3735;-55.6348;35.2300 
618.214;-0.6689;-0.0195;1.0068;-0.4883;1.0376;0.8545;0.2692;0.4779;-55.6183;35.2300 
618.234;-0.6689;-0.0195;1.0068;-0.4883;1.0376;0.8545;0.2582;0.5823;-55.5963;35.2400 
618.234;-0.6689;-0.0195;1.0068;-0.4883;1.0376;0.8545;0.2472;0.6812;-55.5798;35.2400 
618.234;-0.6689;-0.0195;1.0068;-0.4883;1.0376;0.8545;0.2362;0.7855;-55.5579;35.2400 
618.234;-0.6689;-0.0195;1.0068;-0.4883;1.0376;0.8545;0.2252;0.8899;-55.5414;35.2400 
618.234;-0.6689;-0.0195;1.0068;-0.4883;1.0376;0.8545;0.2142;0.9888;-55.5249;35.2400 
618.234;-0.6689;-0.0195;1.0068;-0.4883;1.0376;0.8545;0.2087;1.0931;-55.5084;35.2400 
618.234;-1.2866;0.0200;0.9717;-0.9766;2.9297;3.0518;0.1868;1.2579;-55.4590;35.3000 
618.234;-1.2866;0.0200;0.9717;-0.9766;2.9297;3.0518;0.1648;1.4172;-55.4041;35.3000 
618.234;-1.2866;0.0200;0.9717;-0.9766;2.9297;3.0518;0.1483;1.5820;-55.3546;35.2300 
618.234;-1.2866;0.0200;0.9717;-0.9766;2.9297;3.0518;0.1318;1.7468;-55.3107;35.2300 
618.234;-1.2866;0.0200;0.9717;-0.9766;2.9297;3.0518;0.1099;1.9061;-55.2612;35.2800 
618.234;-1.2866;0.0200;0.9717;-0.9766;2.9297;3.0518;0.0934;2.0709;-55.2118;35.2800 
618.234;-1.2866;0.0200;0.9717;-0.9766;2.9297;3.0518;0.0714;2.2302;-55.1624;35.2000 
618.234;-1.2866;0.0200;0.9717;-0.9766;2.9297;3.0518;0.0549;2.3950;-55.1129;35.2000 
618.234;-1.8530;0.0801;0.9531;-1.1597;4.2725;6.1646;0.0275;2.5873;-55.0305;35.2000 
618.234;-1.8530;0.0801;0.9531;-1.1597;4.2725;6.1646;0.0055;2.7795;-54.9536;35.2400 
618.234;-1.8530;0.0801;0.9531;-1.1597;4.2725;6.1646;-0.0165;2.9718;-54.8712;35.2400 
618.234;-1.8530;0.0801;0.9531;-1.1597;4.2725;6.1646;-0.0385;3.1641;-54.7943;35.1600 
618.234;-1.8530;0.0801;0.9531;-1.1597;4.2725;6.1646;-0.0659;3.3508;-54.7119;35.1600 
618.234;-1.8530;0.0801;0.9531;-1.1597;4.2725;6.1646;-0.0879;3.5431;-54.6350;35.2500 
618.254;-1.8530;0.0801;0.9531;-1.1597;4.2725;6.1646;-0.1154;3.7354;-54.5526;35.2500 
618.254;-1.8530;0.0801;0.9531;-1.1597;4.2725;6.1646;-0.1373;3.9221;-54.4757;35.2000 
618.254;-2.2612;0.1616;0.9229;-1.1597;4.0894;8.3618;-0.1648;4.1254;-54.3768;35.2000 
618.254;-2.2612;0.1616;0.9229;-1.1597;4.0894;8.3618;-0.1923;4.3231;-54.2780;35.2600 
618.254;-2.2612;0.1616;0.9229;-1.1597;4.0894;8.3618;-0.2197;4.5264;-54.1736;35.2600 
618.274;-2.2612;0.1616;0.9229;-1.1597;4.0894;8.3618;-0.2472;4.7241;-54.0747;35.2100 
618.274;-2.2612;0.1616;0.9229;-1.1597;4.0894;8.3618;-0.2692;4.9219;-53.9758;35.2100 
618.284;-2.2612;0.1616;0.9229;-1.1597;4.0894;8.3618;-0.2966;5.1196;-53.8770;35.2000 
618.284;-2.2612;0.1616;0.9229;-1.1597;4.0894;8.3618;-0.3186;5.3229;-53.7781;35.2000 
618.284;-2.2612;0.1616;0.9229;-1.1597;4.0894;8.3618;-0.3461;5.5206;-53.6792;35.2100 
618.284;-2.2461;0.1924;0.8848;-0.7324;2.5024;7.3853;-0.3625;5.7074;-53.5858;35.2100 
618.294;-2.2461;0.1924;0.8848;-0.7324;2.5024;7.3853;-0.3790;5.8997;-53.4979;35.2100 
618.294;-2.2461;0.1924;0.8848;-0.7324;2.5024;7.3853;-0.4010;6.0919;-53.4045;35.1900 
618.314;-2.2461;0.1924;0.8848;-0.7324;2.5024;7.3853;-0.4175;6.2842;-53.3167;35.1900 
618.314;-2.2461;0.1924;0.8848;-0.7324;2.5024;7.3853;-0.4340;6.4709;-53.2233;35.2400 
618.314;-2.2461;0.1924;0.8848;-0.7324;2.5024;7.3853;-0.4504;6.6632;-53.1299;35.2400 
618.314;-2.2461;0.1924;0.8848;-0.7324;2.5024;7.3853;-0.4669;6.8500;-53.0365;35.2700 
618.324;-2.2461;0.1924;0.8848;-0.7324;2.5024;7.3853;-0.4834;7.0422;-52.9486;35.2700 
618.324;-1.9331;0.1743;0.8057;0.1221;-0.1221;2.3804;-0.4944;7.2125;-52.8882;35.2000 
618.424;-1.9331;0.1743;0.8057;0.1221;-0.1221;2.3804;-0.5054;7.3828;-52.8278;35.2000 
618.424;-1.9331;0.1743;0.8057;0.1221;-0.1221;2.3804;-0.5109;7.5531;-52.7673;35.2900 
618.434;-1.9331;0.1743;0.8057;0.1221;-0.1221;2.3804;-0.5219;7.7289;-52.7069;35.2900 
618.434;-1.9331;0.1743;0.8057;0.1221;-0.1221;2.3804;-0.5273;7.8992;-52.6520;35.2100 
618.434;-1.9331;0.1743;0.8057;0.1221;-0.1221;2.3804;-0.5383;8.0695;-52.5970;35.2100 
618.434;-1.9331;0.1743;0.8057;0.1221;-0.1221;2.3804;-0.5383;8.2397;-52.5421;35.2600 
618.434;-1.9331;0.1743;0.8057;0.1221;-0.1221;2.3804;-0.5438;8.4045;-52.4872;35.2600 
618.434;-1.3438;0.1011;0.6196;1.4038;-2.4414;-5.5542;-0.5493;8.5583;-52.4817;35.2200 
618.434;-1.3438;0.1011;0.6196;1.4038;-2.4414;-5.5542;-0.5493;8.7067;-52.4707;35.2200 
618.434;-1.3438;0.1011;0.6196;1.4038;-2.4414;-5.5542;-0.5548;8.8605;-52.4652;35.2200 
618.434;-1.3438;0.1011;0.6196;1.4038;-2.4414;-5.5542;-0.5548;9.0088;-52.4597;35.2000 
618.434;-1.3438;0.1011;0.6196;1.4038;-2.4414;-5.5542;-0.5603;9.1626;-52.4487;35.2000 
618.434;-1.3438;0.1011;0.6196;1.4038;-2.4414;-5.5542;-0.5603;9.3109;-52.4432;35.2100 
618.434;-1.3438;0.1011;0.6196;1.4038;-2.4414;-5.5542;-0.5658;9.4592;-52.4377;35.2100 
618.434;-1.3438;0.1011;0.6196;1.4038;-2.4414;-5.5542;-0.5658;9.6075;-52.4323;35.2600 
618.434;-0.6538;0.0327;0.3892;3.4790;-3.5400;-13.9160;-0.5603;9.7339;-52.4817;35.2600 
618.434;-0.6538;0.0327;0.3892;3.4790;-3.5400;-13.9160;-0.5548;9.8602;-52.5311;35.2600 
618.434;-0.6538;0.0327;0.3892;3.4790;-3.5400;-13.9160;-0.5493;9.9866;-52.5861;35.2600 
618.434;-0.6538;0.0327;0.3892;3.4790;-3.5400;-13.9160;-0.5438;10.1129;-52.6355;35.2300 
618.434;-0.6538;0.0327;0.3892;3.4790;-3.5400;-13.9160;-0.5383;10.2338;-52.6849;35.2300 
618.434;-0.6538;0.0327;0.3892;3.4790;-3.5400;-13.9160;-0.5328;10.3601;-52.7399;35.1800 
618.444;-0.6538;0.0327;0.3892;3.4790;-3.5400;-13.9160;-0.5273;10.4865;-52.7893;35.1800 
618.444;-0.0806;-0.0161;0.1978;6.1646;-3.9063;-20.2026;-0.5219;10.4974;-52.9102;35.2100 
618.454;-0.0806;-0.0161;0.1978;6.1646;-3.9063;-20.2026;-0.5219;10.5139;-53.0365;35.2100 
618.454;-0.0806;-0.0161;0.1978;6.1646;-3.9063;-20.2026;-0.5219;10.5304;-53.1573;35.2100 
618.464;-0.0806;-0.0161;0.1978;6.1646;-3.9063;-20.2026;-0.5164;10.5414;-53.2782;35.2200 
618.464;-0.0806;-0.0161;0.1978;6.1646;-3.9063;-20.2026;-0.5164;10.5579;-53.3990;35.2200 
618.474;-0.0806;-0.0161;0.1978;6.1646;-3.9063;-20.2026;-0.5164;10.5743;-53.5144;35.2200 
618.474;-0.0806;-0.0161;0.1978;6.1646;-3.9063;-20.2026;-0.5109;10.5853;-53.6353;35.2200 
618.494;-0.0806;-0.0161;0.1978;6.1646;-3.9063;-20.2026;-0.5109;10.6018;-53.7561;35.2300 
618.494;0.2881;-0.0396;0.0811;8.9111;-3.6621;-23.6206;-0.4889;10.3491;-53.8440;35.2300 
618.494;0.2881;-0.0396;0.0811;8.9111;-3.6621;-23.6206;-0.4669;10.1019;-53.9319;35.2300 
618.494;0.2881;-0.0396;0.0811;8.9111;-3.6621;-23.6206;-0.4449;9.8492;-54.0198;35.2300 
618.514;0.2881;-0.0396;0.0811;8.9111;-3.6621;-23.6206;-0.4230;9.6021;-54.1077;35.2200 
618.514;0.2881;-0.0396;0.0811;8.9111;-3.6621;-23.6206;-0.4010;9.3494;-54.1956;35.2200 
618.534;0.2881;-0.0396;0.0811;8.9111;-3.6621;-23.6206;-0.3790;9.1022;-54.2889;35.2600 
618.534;0.2881;-0.0396;0.0811;8.9111;-3.6621;-23.6206;-0.3571;8.8550;-54.3768;35.2600 
618.634;0.2881;-0.0396;0.0811;8.9111;-3.6621;-23.6206;-0.3296;8.6078;-54.4647;35.2600 
618.634;0.4600;-0.0435;0.0405;11.1694;-2.5024;-24.5361;-0.2307;8.3496;-54.5032;35.2600 
618.634;0.4600;-0.0435;0.0405;11.1694;-2.5024;-24.5361;-0.1318;8.0969;-54.5416;35.2500 
618.634;0.4600;-0.0435;0.0405;11.1694;-2.5024;-24.5361;-0.0385;7.8387;-54.5801;35.2500 
618.634;0.4600;-0.0435;0.0405;11.1694;-2.5024;-24.5361;0.0549;7.5861;-54.6185;35.2500 
618.634;0.4600;-0.0435;0.0405;11.1694;-2.5024;-24.5361;0.1538;7.3334;-54.6570;35.2600 
618.654;0.4600;-0.0435;0.0405;11.1694;-2.5024;-24.5361;0.2527;7.0752;-54.6954;35.2600 
618.654;0.4600;-0.0435;0.0405;11.1694;-2.5024;-24.5361;0.3516;6.8225;-54.7339;35.2700 
618.654;0.4600;-0.0435;0.0405;11.1694;-2.5024;-24.5361;0.4504;6.5753;-54.7778;35.2700 
618.654;0.4868;-0.0347;0.0591;12.6953;-0.1831;-23.9868;0.5548;6.3336;-54.8218;35.2900 
618.654;0.4868;-0.0347;0.0591;12.6953;-0.1831;-23.9868;0.6537;6.0974;-54.8657;35.2900 
618.654;0.4868;-0.0347;0.0591;12.6953;-0.1831;-23.9868;0.7581;5.8667;-54.9097;35.2300 
618.654;0.4868;-0.0347;0.0591;12.6953;-0.1831;-23.9868;0.8569;5.6305;-54.9591;35.2300 
618.654;0.4868;-0.0347;0.0591;12.6953;-0.1831;-23.9868;0.9613;5.3943;-55.0085;35.2100 
618.654;0.4868;-0.0347;0.0591;12.6953;-0.1831;-23.9868;1.0602;5.1581;-55.0580;35.2100 
618.654;0.4868;-0.0347;0.0591;12.6953;-0.1831;-23.9868;1.1646;4.9274;-55.1019;35.2500 
618.654;0.4868;-0.0347;0.0591;12.6953;-0.1831;-23.9868;1.2634;4.6912;-55.1569;35.2500 
618.654;0.4229;-0.0156;0.1416;13.6719;3.1128;-22.8882;1.3348;4.4989;-55.2393;35.2000 
618.654;0.4229;-0.0156;0.1416;13.6719;3.1128;-22.8882;1.4063;4.3066;-55.3271;35.2000 
618.654;0.4229;-0.0156;0.1416;13.6719;3.1128;-22.8882;1.4722;4.1144;-55.4150;35.2600 
618.654;0.4229;-0.0156;0.1416;13.6719;3.1128;-22.8882;1.5436;3.9221;-55.5029;35.2600 
618.654;0.4229;-0.0156;0.1416;13.6719;3.1128;-22.8882;1.6150;3.7299;-55.5908;35.2600 
618.654;0.4229;-0.0156;0.1416;13.6719;3.1128;-22.8882;1.6864;3.5376;-55.6842;35.2300 
618.654;0.4229;-0.0156;0.1416;13.6719;3.1128;-22.8882;1.7578;3.3453;-55.7721;35.2300 
618.654;0.4229;-0.0156;0.1416;13.6719;3.1128;-22.8882;1.8237;3.1586;-55.8600;35.3200 
618.674;0.2642;0.2139;0.4360;10.6812;2.8687;-20.1416;1.9336;3.0762;-55.9698;35.3200 
618.674;0.2642;0.2139;0.4360;10.6812;2.8687;-20.1416;2.0435;2.9993;-56.0852;35.2400 
618.674;0.2642;0.2139;0.4360;10.6812;2.8687;-20.1416;2.1533;2.9169;-56.1951;35.2400 
618.674;0.2642;0.2139;0.4360;10.6812;2.8687;-20.1416;2.2632;2.8400;-56.3049;35.2400 
618.684;0.2642;0.2139;0.4360;10.6812;2.8687;-20.1416;2.3730;2.7631;-56.4093;35.2400 
618.684;0.2642;0.2139;0.4360;10.6812;2.8687;-20.1416;2.4829;2.6807;-56.5192;35.2300 
618.704;0.2642;0.2139;0.4360;10.6812;2.8687;-20.1416;2.5928;2.6038;-56.6290;35.2300 
618.704;0.2642;0.2139;0.4360;10.6812;2.8687;-20.1416;2.7026;2.5323;-56.7334;35.1700 
618.724;0.1411;0.2925;0.5122;-3.9063;-0.6104;-14.1602;2.7576;2.4774;-56.8213;35.1700 
618.724;0.1411;0.2925;0.5122;-3.9063;-0.6104;-14.1602;2.8070;2.4225;-56.9092;35.2300 
618.844;0.1411;0.2925;0.5122;-3.9063;-0.6104;-14.1602;2.8619;2.3730;-56.9971;35.2300 
618.844;0.1411;0.2925;0.5122;-3.9063;-0.6104;-14.1602;2.9169;2.3236;-57.0795;35.2700 
618.854;0.1411;0.2925;0.5122;-3.9063;-0.6104;-14.1602;2.9718;2.2687;-57.1619;35.2700 
618.854;0.1411;0.2925;0.5122;-3.9063;-0.6104;-14.1602;3.0267;2.2192;-57.2443;35.2700 
618.854;0.1411;0.2925;0.5122;-3.9063;-0.6104;-14.1602;3.0762;2.1698;-57.3267;35.2000 
618.854;0.1411;0.2925;0.5122;-3.9063;-0.6104;-14.1602;3.1311;2.1204;-57.4036;35.2000 
618.854;0.0024;0.4707;0.6567;-34.6069;1.8311;-5.4321;3.0542;2.1204;-57.4475;35.2000 
618.854;0.0024;0.4707;0.6567;-34.6069;1.8311;-5.4321;2.9773;2.1149;-57.4969;35.2000 
618.854;0.0024;0.4707;0.6567;-34.6069;1.8311;-5.4321;2.9004;2.1149;-57.5409;35.1800 
618.854;0.0024;0.4707;0.6567;-34.6069;1.8311;-5.4321;2.8235;2.1149;-57.5793;35.1800 
618.854;0.0024;0.4707;0.6567;-34.6069;1.8311;-5.4321;2.7466;2.1149;-57.6233;35.2000 
618.854;0.0024;0.4707;0.6567;-34.6069;1.8311;-5.4321;2.6697;2.1149;-57.6617;35.2000 
618.854;0.0024;0.4707;0.6567;-34.6069;1.8311;-5.4321;2.5928;2.1094;-57.7057;35.2900 
618.854;0.0024;0.4707;0.6567;-34.6069;1.8311;-5.4321;2.5159;2.1094;-57.7441;35.2900 
618.854;-0.1558;0.3574;0.6143;-79.1016;14.9536;5.3711;2.2028;2.2137;-57.7167;35.2100 
618.854;-0.1558;0.3574;0.6143;-79.1016;14.9536;5.3711;1.8951;2.3181;-57.6892;35.2100 
618.854;-0.1558;0.3574;0.6143;-79.1016;14.9536;5.3711;1.5820;2.4225;-57.6617;35.2100 
618.854;-0.1558;0.3574;0.6143;-79.1016;14.9536;5.3711;1.2744;2.5269;-57.6398;35.2100 
618.854;-0.1558;0.3574;0.6143;-79.1016;14.9536;5.3711;0.9668;2.6312;-57.6123;35.2100 
618.854;-0.1558;0.3574;0.6143;-79.1016;14.9536;5.3711;0.6592;2.7356;-57.5848;35.1900 
618.854;-0.1558;0.3574;0.6143;-79.1016;14.9536;5.3711;0.3516;2.8400;-57.5629;35.1900 
618.854;-0.1558;0.3574;0.6143;-79.1016;14.9536;5.3711;0.0439;2.9443;-57.5354;35.2100 
618.854;-0.2075;0.1680;0.4463;-127.8076;39.6729;14.8315;-0.5273;3.2080;-57.4365;35.2100 
618.854;-0.2075;0.1680;0.4463;-127.8076;39.6729;14.8315;-1.1096;3.4717;-57.3376;35.2900 
618.854;-0.2075;0.1680;0.4463;-127.8076;39.6729;14.8315;-1.6864;3.7408;-57.2388;35.2900 
618.854;-0.2075;0.1680;0.4463;-127.8076;39.6729;14.8315;-2.2577;4.0045;-57.1454;35.2000 
618.854;-0.2075;0.1680;0.4463;-127.8076;39.6729;14.8315;-2.8345;4.2682;-57.0575;35.2000 
618.854;-0.2075;0.1680;0.4463;-127.8076;39.6729;14.8315;-3.4058;4.5374;-56.9641;35.2000 
618.854;-0.2075;0.1680;0.4463;-127.8076;39.6729;14.8315;-3.9716;4.8010;-56.8762;35.2000 
618.854;-0.2075;0.1680;0.4463;-127.8076;39.6729;14.8315;-4.5428;5.0647;-56.7938;35.2700 
618.854;-0.3252;-0.1460;0.4009;-165.0391;65.5518;17.7612;-5.4218;5.4822;-56.6510;35.2700 
618.864;-0.3252;-0.1460;0.4009;-165.0391;65.5518;17.7612;-6.3007;5.8997;-56.5137;35.2200 
618.864;-0.3252;-0.1460;0.4009;-165.0391;65.5518;17.7612;-7.1741;6.3171;-56.3818;35.2200 
618.884;-0.3252;-0.1460;0.4009;-165.0391;65.5518;17.7612;-8.0475;6.7346;-56.2610;35.2300 
618.884;-0.3252;-0.1460;0.4009;-165.0391;65.5518;17.7612;-8.9154;7.1521;-56.1401;35.2300 
618.884;-0.3252;-0.1460;0.4009;-165.0391;65.5518;17.7612;-9.7833;7.5696;-56.0303;35.2300 
618.984;-0.3252;-0.1460;0.4009;-165.0391;65.5518;17.7612;-10.6512;7.9871;-55.9259;35.2000 
618.984;-0.3252;-0.1460;0.4009;-165.0391;65.5518;17.7612;-11.5137;8.4045;-55.8270;35.2000 
618.984;-0.3340;-0.3589;0.3516;-180.6030;73.3643;10.6812;-12.5244;8.8330;-55.7831;35.2300 
618.984;-0.3340;-0.3589;0.3516;-180.6030;73.3643;10.6812;-13.5297;9.2560;-55.7446;35.2300 
618.994;-0.3340;-0.3589;0.3516;-180.6030;73.3643;10.6812;-14.5349;9.6790;-55.7172;35.2000 
618.994;-0.3340;-0.3589;0.3516;-180.6030;73.3643;10.6812;-15.5402;10.1019;-55.6897;35.2000 
618.994;-0.3340;-0.3589;0.3516;-180.6030;73.3643;10.6812;-16.5454;10.5249;-55.6732;35.2400 
618.994;-0.3340;-0.3589;0.3516;-180.6030;73.3643;10.6812;-17.5452;10.9424;-55.6677;35.2400 
618.994;-0.3340;-0.3589;0.3516;-180.6030;73.3643;10.6812;-18.5449;11.3599;-55.6622;35.2000 
618.994;-0.3340;-0.3589;0.3516;-180.6030;73.3643;10.6812;-19.5447;11.7773;-55.6677;35.2000 
618.994;-0.0093;-0.7095;0.6670;-173.5840;51.2085;-9.2773;-20.5170;11.9586;-55.7666;35.2300 
618.994;-0.0093;-0.7095;0.6670;-173.5840;51.2085;-9.2773;-21.4838;12.1344;-55.8710;35.2300 
618.994;-0.0093;-0.7095;0.6670;-173.5840;51.2085;-9.2773;-22.4506;12.3157;-55.9808;35.1800 
618.994;-0.0093;-0.7095;0.6670;-173.5840;51.2085;-9.2773;-23.4174;12.4860;-56.0907;35.1800 
618.994;-0.0093;-0.7095;0.6670;-173.5840;51.2085;-9.2773;-24.3842;12.6617;-56.2061;35.2600 
618.994;-0.0093;-0.7095;0.6670;-173.5840;51.2085;-9.2773;-25.3455;12.8265;-56.3269;35.2600 
618.994;-0.0093;-0.7095;0.6670;-173.5840;51.2085;-9.2773;-26.3013;12.9968;-56.4478;35.2600 
618.994;-0.0093;-0.7095;0.6670;-173.5840;51.2085;-9.2773;-27.2626;13.1616;-56.5686;35.2400 
619.004;0.2842;-0.7979;0.7671;-150.7568;0.0000;-43.0298;-28.1030;12.9749;-56.7389;35.2400 
619.004;0.2842;-0.7979;0.7671;-150.7568;0.0000;-43.0298;-28.9435;12.7826;-56.9037;35.2000 
619.014;0.2842;-0.7979;0.7671;-150.7568;0.0000;-43.0298;-29.7839;12.5958;-57.0630;35.2000 
619.014;0.2842;-0.7979;0.7671;-150.7568;0.0000;-43.0298;-30.6134;12.4036;-57.2223;35.1900 
619.024;0.2842;-0.7979;0.7671;-150.7568;0.0000;-43.0298;-31.4429;12.2058;-57.3816;35.1900 
619.024;0.2842;-0.7979;0.7671;-150.7568;0.0000;-43.0298;-32.2668;12.0135;-57.5354;35.2000 
619.034;0.2842;-0.7979;0.7671;-150.7568;0.0000;-43.0298;-33.0908;11.8158;-57.6892;35.2000 
619.034;0.2842;-0.7979;0.7671;-150.7568;0.0000;-43.0298;-33.9093;11.6125;-57.8430;35.2200 
619.034;0.6978;-0.8857;0.9458;-123.5352;-68.0542;-86.3647;-34.5740;10.9698;-57.9803;35.2200 
619.034;0.6978;-0.8857;0.9458;-123.5352;-68.0542;-86.3647;-35.2332;10.3271;-58.1122;35.1900 
619.044;0.6978;-0.8857;0.9458;-123.5352;-68.0542;-86.3647;-35.8868;9.6899;-58.2385;35.1900 
619.044;0.6978;-0.8857;0.9458;-123.5352;-68.0542;-86.3647;-36.5405;9.0472;-58.3594;35.2600 
619.054;0.6978;-0.8857;0.9458;-123.5352;-68.0542;-86.3647;-37.1832;8.4045;-58.4747;35.2600 
619.054;0.6978;-0.8857;0.9458;-123.5352;-68.0542;-86.3647;-37.8259;7.7673;-58.5791;35.2800 
619.054;0.6978;-0.8857;0.9458;-123.5352;-68.0542;-86.3647;-38.4631;7.1246;-58.6780;35.2800 
619.054;0.6978;-0.8857;0.9458;-123.5352;-68.0542;-86.3647;-39.0948;6.4874;-58.7714;35.2800 
619.074;0.9082;-0.7314;0.8271;-101.5625;-136.4136;-131.8359;-39.6057;5.4108;-58.8208;35.2800 
619.074;0.9082;-0.7314;0.8271;-101.5625;-136.4136;-131.8359;-40.1111;4.3341;-58.8647;35.2800 
619.074;0.9082;-0.7314;0.8271;-101.5625;-136.4136;-131.8359;-40.6165;3.2629;-58.8922;35.2500 
619.074;0.9082;-0.7314;0.8271;-101.5625;-136.4136;-131.8359;-41.1163;2.1918;-58.9197;35.2500 
619.074;0.9082;-0.7314;0.8271;-101.5625;-136.4136;-131.8359;-41.6162;1.1261;-58.9362;35.3000 
619.084;0.9082;-0.7314;0.8271;-101.5625;-136.4136;-131.8359;-42.1106;0.0659;-58.9471;35.3000 
619.084;0.9082;-0.7314;0.8271;-101.5625;-136.4136;-131.8359;-42.6105;-0.9943;-58.9471;35.2500 
619.184;0.9082;-0.7314;0.8271;-101.5625;-136.4136;-131.8359;-43.1049;-2.0490;-58.9417;35.2500 
619.184;0.8599;-0.4453;0.4883;-89.5996;-191.4673;-171.8750;-43.5388;-3.4772;-58.8867;35.1800 
619.204;0.8599;-0.4453;0.4883;-89.5996;-191.4673;-171.8750;-43.9728;-4.9054;-58.8208;35.1800 
619.204;0.8599;-0.4453;0.4883;-89.5996;-191.4673;-171.8750;-44.4122;-6.3226;-58.7439;35.1700 
619.204;0.8599;-0.4453;0.4883;-89.5996;-191.4673;-171.8750;-44.8517;-7.7399;-58.6615;35.1700 
619.204;0.8599;-0.4453;0.4883;-89.5996;-191.4673;-171.8750;-45.2966;-9.1461;-58.5681;35.1700 
619.204;0.8599;-0.4453;0.4883;-89.5996;-191.4673;-171.8750;-45.7416;-10.5524;-58.4637;35.1700 
619.204;0.8599;-0.4453;0.4883;-89.5996;-191.4673;-171.8750;-46.1920;-11.9586;-58.3484;35.2700 
619.204;0.8599;-0.4453;0.4883;-89.5996;-191.4673;-171.8750;-46.6425;-13.3539;-58.2275;35.2700 
619.204;0.6851;-0.1592;0.1196;-86.9751;-225.1587;-201.1108;-47.0984;-15.0238;-58.0627;35.2700 
619.204;0.6851;-0.1592;0.1196;-86.9751;-225.1587;-201.1108;-47.5653;-16.6937;-57.8815;35.2200 
619.204;0.6851;-0.1592;0.1196;-86.9751;-225.1587;-201.1108;-48.0377;-18.3527;-57.6892;35.2200 
619.204;0.6851;-0.1592;0.1196;-86.9751;-225.1587;-201.1108;-48.5211;-20.0116;-57.4805;35.2000 
619.204;0.6851;-0.1592;0.1196;-86.9751;-225.1587;-201.1108;-49.0155;-21.6595;-57.2607;35.2000 
619.204;0.6851;-0.1592;0.1196;-86.9751;-225.1587;-201.1108;-49.5209;-23.3020;-57.0245;35.2200 
619.204;0.6851;-0.1592;0.1196;-86.9751;-225.1587;-201.1108;-50.0372;-24.9390;-56.7664;35.2200 
619.204;0.6851;-0.1592;0.1196;-86.9751;-225.1587;-201.1108;-50.5701;-26.5704;-56.4972;35.2200 
619.204;0.9082;-0.0581;-0.1763;-89.4165;-237.3047;-217.8955;-51.1523;-28.3502;-56.1896;35.2200 
619.204;0.9082;-0.0581;-0.1763;-89.4165;-237.3047;-217.8955;-51.7511;-30.1245;-55.8600;35.2100 
619.204;0.9082;-0.0581;-0.1763;-89.4165;-237.3047;-217.8955;-52.3773;-31.8933;-55.4974;35.2100 
619.204;0.9082;-0.0581;-0.1763;-89.4165;-237.3047;-217.8955;-53.0255;-33.6511;-55.1129;35.2600 
619.204;0.9082;-0.0581;-0.1763;-89.4165;-237.3047;-217.8955;-53.7012;-35.4034;-54.7009;35.2600 
619.204;0.9082;-0.0581;-0.1763;-89.4165;-237.3047;-217.8955;-54.4043;-37.1448;-54.2505;35.1800 
619.204;0.9082;-0.0581;-0.1763;-89.4165;-237.3047;-217.8955;-55.1404;-38.8751;-53.7671;35.1800 
619.224;0.9082;-0.0581;-0.1763;-89.4165;-237.3047;-217.8955;-55.9094;-40.6000;-53.2507;35.1800 
619.224;0.8560;0.0234;-0.3389;-92.2852;-232.1167;-221.3135;-56.7279;-42.3413;-52.7069;35.2500 
619.244;0.8560;0.0234;-0.3389;-92.2852;-232.1167;-221.3135;-57.5903;-44.0717;-52.1191;35.2500 
619.244;0.8560;0.0234;-0.3389;-92.2852;-232.1167;-221.3135;-58.5077;-45.7910;-51.4764;35.2600 
619.244;0.8560;0.0234;-0.3389;-92.2852;-232.1167;-221.3135;-59.4745;-47.4939;-50.7788;35.2600 
619.254;0.8560;0.0234;-0.3389;-92.2852;-232.1167;-221.3135;-60.5017;-49.1858;-50.0208;35.2500 
619.254;0.8560;0.0234;-0.3389;-92.2852;-232.1167;-221.3135;-61.6003;-50.8667;-49.1858;35.2500 
619.264;0.8560;0.0234;-0.3389;-92.2852;-232.1167;-221.3135;-62.7759;-52.5311;-48.2684;35.2200 
619.264;0.8560;0.0234;-0.3389;-92.2852;-232.1167;-221.3135;-64.0393;-54.1791;-47.2687;35.2200 
619.274;1.0894;-0.0400;-0.3955;-92.7734;-214.4775;-210.4492;-65.3302;-55.7117;-46.2634;35.2300 
619.274;1.0894;-0.0400;-0.3955;-92.7734;-214.4775;-210.4492;-66.7145;-57.2223;-45.1593;35.2300 
619.274;1.0894;-0.0400;-0.3955;-92.7734;-214.4775;-210.4492;-68.2141;-58.7164;-43.9453;35.2900 
619.274;1.0894;-0.0400;-0.3955;-92.7734;-214.4775;-210.4492;-69.8346;-60.1886;-42.5995;35.2900 
619.284;1.0894;-0.0400;-0.3955;-92.7734;-214.4775;-210.4492;-71.5979;-61.6333;-41.1108;35.2500 
619.284;1.0894;-0.0400;-0.3955;-92.7734;-214.4775;-210.4492;-73.5260;-63.0505;-39.4574;35.2500 
619.304;1.0894;-0.0400;-0.3955;-92.7734;-214.4775;-210.4492;-75.6354;-64.4403;-37.6227;35.2300 
619.304;1.0894;-0.0400;-0.3955;-92.7734;-214.4775;-210.4492;-77.9590;-65.7861;-35.5682;35.2300 
619.304;1.1694;-0.0884;-0.4390;-89.7827;-189.5752;-187.3779;-80.2771;-66.9562;-33.5303;35.2300 
619.304;1.1694;-0.0884;-0.4390;-89.7827;-189.5752;-187.3779;-82.8094;-68.0878;-31.2726;35.2300 
619.304;1.1694;-0.0884;-0.4390;-89.7827;-189.5752;-187.3779;-85.5835;-69.1699;-28.7732;35.2300 
619.304;1.1694;-0.0884;-0.4390;-89.7827;-189.5752;-187.3779;-88.6322;-70.2081;-25.9991;35.2600 
619.324;1.1694;-0.0884;-0.4390;-89.7827;-189.5752;-187.3779;-91.9720;-71.1859;-22.9285;35.2600 
619.324;1.1694;-0.0884;-0.4390;-89.7827;-189.5752;-187.3779;-95.6415;-72.0978;-19.5337;35.2300 
619.334;1.1694;-0.0884;-0.4390;-89.7827;-189.5752;-187.3779;-99.6515;-72.9327;-15.7928;35.2300 
619.334;1.1694;-0.0884;-0.4390;-89.7827;-189.5752;-187.3779;-104.0240;-73.6798;-11.6840;35.2700 
619.444;1.0542;-0.0952;-0.4238;-83.3130;-161.8652;-156.2500;-108.1000;-74.2236;-7.8717;35.2700 
619.444;1.0542;-0.0952;-0.4238;-83.3130;-161.8652;-156.2500;-112.4231;-74.6851;-3.8123;35.2700 
619.454;1.0542;-0.0952;-0.4238;-83.3130;-161.8652;-156.2500;-116.9604;-75.0641;0.4614;35.2700 
619.454;1.0542;-0.0952;-0.4238;-83.3130;-161.8652;-156.2500;-121.6901;-75.3497;4.9274;35.2000 
619.454;1.0542;-0.0952;-0.4238;-83.3130;-161.8652;-156.2500;-126.5515;-75.5420;9.5306;35.2000 
619.454;1.0542;-0.0952;-0.4238;-83.3130;-161.8652;-156.2500;-131.4899;-75.6299;14.2053;35.2300 
619.454;1.0542;-0.0952;-0.4238;-83.3130;-161.8652;-156.2500;-136.4392;-75.6189;18.8965;35.2300 
619.454;1.0542;-0.0952;-0.4238;-83.3130;-161.8652;-156.2500;-141.3336;-75.5090;23.5327;35.2200 
619.454;1.0332;-0.1006;-0.4585;-74.2798;-135.1929;-124.2676;-145.2887;-75.3168;27.2461;35.2200 
619.454;1.0332;-0.1006;-0.4585;-74.2798;-135.1929;-124.2676;-149.1174;-75.0586;30.8331;35.2200 
619.454;1.0332;-0.1006;-0.4585;-74.2798;-135.1929;-124.2676;-152.7979;-74.7455;34.2719;35.2200 
619.454;1.0332;-0.1006;-0.4585;-74.2798;-135.1929;-124.2676;-156.3135;-74.3774;37.5458;35.2200 
619.454;1.0332;-0.1006;-0.4585;-74.2798;-135.1929;-124.2676;-159.6533;-73.9600;40.6439;35.2200 
619.454;1.0332;-0.1006;-0.4585;-74.2798;-135.1929;-124.2676;-162.8119;-73.4985;43.5608;35.2200 
619.454;1.0332;-0.1006;-0.4585;-74.2798;-135.1929;-124.2676;-165.7947;-72.9932;46.3019;35.2600 
619.454;1.0332;-0.1006;-0.4585;-74.2798;-135.1929;-124.2676;-168.5962;-72.4493;48.8617;35.2600 
619.454;0.9805;-0.0781;-0.4741;-64.2700;-113.0371;-98.7549;-170.7495;-71.9604;50.8008;35.2600 
619.454;0.9805;-0.0781;-0.4741;-64.2700;-113.0371;-98.7549;-172.7875;-71.4496;52.6245;35.2600 
619.454;0.9805;-0.0781;-0.4741;-64.2700;-113.0371;-98.7549;-174.7211;-70.9167;54.3439;35.2100 
619.464;0.9805;-0.0781;-0.4741;-64.2700;-113.0371;-98.7549;-176.5448;-70.3729;55.9534;35.2100 
619.464;0.9805;-0.0781;-0.4741;-64.2700;-113.0371;-98.7549;-178.2697;-69.8126;57.4695;35.1900 
619.464;0.9805;-0.0781;-0.4741;-64.2700;-113.0371;-98.7549;-179.9066;-69.2413;58.8922;35.1900 
619.464;0.9805;-0.0781;-0.4741;-64.2700;-113.0371;-98.7549;178.5388;-68.6536;60.2325;35.2400 
619.474;0.9805;-0.0781;-0.4741;-64.2700;-113.0371;-98.7549;177.0667;-68.0603;61.4905;35.2400 
619.474;0.9111;-0.0376;-0.4790;-54.9927;-96.7407;-82.6416;175.8856;-67.5330;62.4902;35.2200 
619.474;0.9111;-0.0376;-0.4790;-54.9927;-96.7407;-82.6416;174.7540;-67.0056;63.4406;35.2200 
619.474;0.9111;-0.0376;-0.4790;-54.9927;-96.7407;-82.6416;173.6719;-66.4673;64.3469;35.2200 
619.474;0.9111;-0.0376;-0.4790;-54.9927;-96.7407;-82.6416;172.6392;-65.9290;65.1984;35.1800 
619.474;0.9111;-0.0376;-0.4790;-54.9927;-96.7407;-82.6416;171.6449;-65.3851;66.0114;35.1800 
619.474;0.9111;-0.0376;-0.4790;-54.9927;-96.7407;-82.6416;170.6946;-64.8358;66.7859;35.2100 
619.474;0.9111;-0.0376;-0.4790;-54.9927;-96.7407;-82.6416;169.7827;-64.2865;67.5165;35.2100 
619.494;0.9111;-0.0376;-0.4790;-54.9927;-96.7407;-82.6416;168.9093;-63.7317;68.2141;35.2400 
619.494;0.8511;0.0142;-0.4839;-47.6074;-86.0596;-75.5005;168.1348;-63.2263;68.8403;35.2400 
619.494;0.8511;0.0142;-0.4839;-47.6074;-86.0596;-75.5005;167.3877;-62.7155;69.4391;35.2200 
619.494;0.8511;0.0142;-0.4839;-47.6074;-86.0596;-75.5005;166.6626;-62.2101;70.0159;35.2200 
619.504;0.8511;0.0142;-0.4839;-47.6074;-86.0596;-75.5005;165.9650;-61.6992;70.5652;35.2200 
619.504;0.8511;0.0142;-0.4839;-47.6074;-86.0596;-75.5005;165.2948;-61.1829;71.0925;35.2200 
619.514;0.8511;0.0142;-0.4839;-47.6074;-86.0596;-75.5005;164.6411;-60.6720;71.5979;35.2100 
619.514;0.8511;0.0142;-0.4839;-47.6074;-86.0596;-75.5005;164.0094;-60.1556;72.0813;35.2100 
619.534;0.8511;0.0142;-0.4839;-47.6074;-86.0596;-75.5005;163.3997;-59.6393;72.5482;35.2300 
619.534;0.8047;0.0693;-0.4932;-42.6636;-80.3833;-75.4395;162.8009;-59.1449;73.0261;35.2300 
619.534;0.8047;0.0693;-0.4932;-42.6636;-80.3833;-75.4395;162.2241;-58.6450;73.4875;35.2100 
619.534;0.8047;0.0693;-0.4932;-42.6636;-80.3833;-75.4395;161.6583;-58.1451;73.9325;35.2100 
619.544;0.8047;0.0693;-0.4932;-42.6636;-80.3833;-75.4395;161.1145;-57.6508;74.3555;35.2100 
619.554;0.8047;0.0693;-0.4932;-42.6636;-80.3833;-75.4395;160.5817;-57.1509;74.7675;35.1600 
619.554;0.8047;0.0693;-0.4932;-42.6636;-80.3833;-75.4395;160.0708;-56.6510;75.1630;35.1600 
619.643;0.8047;0.0693;-0.4932;-42.6636;-80.3833;-75.4395;159.5654;-56.1456;75.5475;35.2300 
619.643;0.8047;0.0693;-0.4932;-42.6636;-80.3833;-75.4395;159.0820;-55.6458;75.9155;35.2300 
619.663;0.7642;0.1255;-0.5054;-40.1611;-78.8574;-80.2612;158.5657;-55.1349;76.3275;35.1900 
619.663;0.7642;0.1255;-0.5054;-40.1611;-78.8574;-80.2612;158.0658;-54.6240;76.7285;35.1900 
619.663;0.7642;0.1255;-0.5054;-40.1611;-78.8574;-80.2612;157.5769;-54.1132;77.1185;35.1600 
619.663;0.7642;0.1255;-0.5054;-40.1611;-78.8574;-80.2612;157.1045;-53.6023;77.4976;35.1600 
619.663;0.7642;0.1255;-0.5054;-40.1611;-78.8574;-80.2612;156.6431;-53.0859;77.8601;35.2800 
619.663;0.7642;0.1255;-0.5054;-40.1611;-78.8574;-80.2612;156.1926;-52.5751;78.2117;35.2800 
619.663;0.7642;0.1255;-0.5054;-40.1611;-78.8574;-80.2612;155.7587;-52.0642;78.5468;35.1500 
619.663;0.7642;0.1255;-0.5054;-40.1611;-78.8574;-80.2612;155.3302;-51.5479;78.8763;35.1500 
619.663;0.7178;0.1821;-0.5190;-39.6729;-80.8716;-88.0737;154.8633;-51.0040;79.2609;35.2100 
619.663;0.7178;0.1821;-0.5190;-39.6729;-80.8716;-88.0737;154.4073;-50.4547;79.6289;35.2100 
619.663;0.7178;0.1821;-0.5190;-39.6729;-80.8716;-88.0737;153.9679;-49.9054;79.9915;35.2100 
619.663;0.7178;0.1821;-0.5190;-39.6729;-80.8716;-88.0737;153.5339;-49.3561;80.3375;35.2400 
619.663;0.7178;0.1821;-0.5190;-39.6729;-80.8716;-88.0737;153.1165;-48.8068;80.6726;35.2400 
619.663;0.7178;0.1821;-0.5190;-39.6729;-80.8716;-88.0737;152.7045;-48.2574;81.0022;35.2900 
619.663;0.7178;0.1821;-0.5190;-39.6729;-80.8716;-88.0737;152.3035;-47.7136;81.3153;35.2900 
619.663;0.7178;0.1821;-0.5190;-39.6729;-80.8716;-88.0737;151.9135;-47.1643;81.6229;35.2800 
619.663;0.6587;0.2383;-0.5317;-40.6494;-85.8765;-97.9004;151.4850;-46.5601;81.9800;35.2800 
619.663;0.6587;0.2383;-0.5317;-40.6494;-85.8765;-97.9004;151.0620;-45.9558;82.3206;35.1800 
619.663;0.6587;0.2383;-0.5317;-40.6494;-85.8765;-97.9004;150.6500;-45.3516;82.6556;35.1800 
619.663;0.6587;0.2383;-0.5317;-40.6494;-85.8765;-97.9004;150.2490;-44.7473;82.9797;35.2500 
619.663;0.6587;0.2383;-0.5317;-40.6494;-85.8765;-97.9004;149.8590;-44.1431;83.2928;35.2500 
619.663;0.6587;0.2383;-0.5317;-40.6494;-85.8765;-97.9004;149.4800;-43.5388;83.6005;35.2300 
619.693;0.6587;0.2383;-0.5317;-40.6494;-85.8765;-97.9004;149.1064;-42.9346;83.8971;35.2300 
619.693;0.6587;0.2383;-0.5317;-40.6494;-85.8765;-97.9004;148.7439;-42.3303;84.1827;35.1700 
619.713;0.5776;0.2974;-0.5444;-42.5415;-93.7500;-109.4360;148.3374;-41.6492;84.5123;35.1700 
619.723;0.5776;0.2974;-0.5444;-42.5415;-93.7500;-109.4360;147.9474;-40.9680;84.8309;35.2000 
619.723;0.5776;0.2974;-0.5444;-42.5415;-93.7500;-109.4360;147.5629;-40.2869;85.1440;35.2000 
619.723;0.5776;0.2974;-0.5444;-42.5415;-93.7500;-109.4360;147.1893;-39.6057;85.4407;35.2000 
619.723;0.5776;0.2974;-0.5444;-42.5415;-93.7500;-109.4360;146.8268;-38.9246;85.7318;35.2200 
619.733;0.5776;0.2974;-0.5444;-42.5415;-93.7500;-109.4360;146.4697;-38.2489;86.0175;35.2200 
619.733;0.5776;0.2974;-0.5444;-42.5415;-93.7500;-109.4360;146.1237;-37.5677;86.2921;35.2300 
619.743;0.5776;0.2974;-0.5444;-42.5415;-93.7500;-109.4360;145.7831;-36.8921;86.5558;35.2300 
619.743;0.4692;0.3579;-0.5557;-44.8608;-104.4922;-123.0469;145.4041;-36.1121;86.8634;35.2700 
619.753;0.4692;0.3579;-0.5557;-44.8608;-104.4922;-123.0469;145.0360;-35.3265;87.1600;35.2700 
619.753;0.4692;0.3579;-0.5557;-44.8608;-104.4922;-123.0469;144.6790;-34.5520;87.4457;35.1700 
619.843;0.4692;0.3579;-0.5557;-44.8608;-104.4922;-123.0469;144.3329;-33.7720;87.7258;35.1700 
619.843;0.4692;0.3579;-0.5557;-44.8608;-104.4922;-123.0469;143.9923;-32.9919;87.9950;35.2200 
619.843;0.4692;0.3579;-0.5557;-44.8608;-104.4922;-123.0469;143.6572;-32.2174;88.2587;35.2200 
619.843;0.4692;0.3579;-0.5557;-44.8608;-104.4922;-123.0469;143.3331;-31.4429;88.5114;35.1900 
619.853;0.4692;0.3579;-0.5557;-44.8608;-104.4922;-123.0469;143.0145;-30.6683;88.7531;35.1900 
619.853;0.3096;0.7720;-0.9429;-47.1802;-117.6147;-138.5498;142.6465;-29.7345;89.0607;35.2200 
619.853;0.3096;0.7720;-0.9429;-47.1802;-117.6147;-138.5498;142.2839;-28.8062;89.3573;35.2200 
619.853;0.3096;0.7720;-0.9429;-47.1802;-117.6147;-138.5498;141.9379;-27.8778;89.6484;35.1600 
619.853;0.3096;0.7720;-0.9429;-47.1802;-117.6147;-138.5498;141.5973;-26.9495;89.9231;35.1600 
619.853;0.3096;0.7720;-0.9429;-47.1802;-117.6147;-138.5498;141.2622;-26.0266;90.1923;35.1600 
619.853;0.3096;0.7720;-0.9429;-47.1802;-117.6147;-138.5498;140.9381;-25.0983;90.4559;35.2300 
619.853;0.3096;0.7720;-0.9429;-47.1802;-117.6147;-138.5498;140.6195;-24.1754;90.7031;35.2300 
619.853;0.3096;0.7720;-0.9429;-47.1802;-117.6147;-138.5498;140.3064;-23.2581;90.9503;35.2000 
619.853;0.1807;0.8672;-1.0005;-49.6216;-129.6997;-152.3438;139.9768;-22.2253;91.2195;35.2000 
619.853;0.1807;0.8672;-1.0005;-49.6216;-129.6997;-152.3438;139.6527;-21.2036;91.4777;35.1900 
619.853;0.1807;0.8672;-1.0005;-49.6216;-129.6997;-152.3438;139.3341;-20.1764;91.7249;35.1900 
619.853;0.1807;0.8672;-1.0005;-49.6216;-129.6997;-152.3438;139.0210;-19.1547;91.9666;35.2100 
619.853;0.1807;0.8672;-1.0005;-49.6216;-129.6997;-152.3438;138.7189;-18.1384;92.2028;35.2100 
619.853;0.1807;0.8672;-1.0005;-49.6216;-129.6997;-152.3438;138.4222;-17.1167;92.4225;35.1600 
619.863;0.1807;0.8672;-1.0005;-49.6216;-129.6997;-152.3438;138.1311;-16.1005;92.6422;35.1600 
619.863;0.1807;0.8672;-1.0005;-49.6216;-129.6997;-152.3438;137.8455;-15.0897;92.8510;35.2200 
619.873;0.0527;1.1294;-1.2461;-52.0020;-136.2915;-159.6069;137.5378;-14.0131;93.0707;35.2200 
619.873;0.0527;1.1294;-1.2461;-52.0020;-136.2915;-159.6069;137.2412;-12.9364;93.2904;35.2900 
619.873;0.0527;1.1294;-1.2461;-52.0020;-136.2915;-159.6069;136.9501;-11.8652;93.4991;35.2900 
619.883;0.0527;1.1294;-1.2461;-52.0020;-136.2915;-159.6069;136.6644;-10.7941;93.7024;35.2500 
619.883;0.0527;1.1294;-1.2461;-52.0020;-136.2915;-159.6069;136.3843;-9.7284;93.8947;35.2500 
619.883;0.0527;1.1294;-1.2461;-52.0020;-136.2915;-159.6069;136.1041;-8.6627;94.0814;35.2500 
619.893;0.0527;1.1294;-1.2461;-52.0020;-136.2915;-159.6069;135.8350;-7.5970;94.2682;35.2100 
619.893;0.0527;1.1294;-1.2461;-52.0020;-136.2915;-159.6069;135.5658;-6.5369;94.4440;35.2100 
619.893;-0.0513;1.1626;-1.2285;-54.0771;-134.7656;-157.6538;135.2856;-5.4822;94.6198;35.2100 
619.893;-0.0513;1.1626;-1.2285;-54.0771;-134.7656;-157.6538;135.0055;-4.4275;94.7955;35.2100 
619.903;-0.0513;1.1626;-1.2285;-54.0771;-134.7656;-157.6538;134.7308;-3.3783;94.9603;35.2300 
619.903;-0.0513;1.1626;-1.2285;-54.0771;-134.7656;-157.6538;134.4617;-2.3346;95.1251;35.2300 
619.903;-0.0513;1.1626;-1.2285;-54.0771;-134.7656;-157.6538;134.1925;-1.2854;95.2789;35.2100 
619.903;-0.0513;1.1626;-1.2285;-54.0771;-134.7656;-157.6538;133.9288;-0.2417;95.4327;35.2100 
619.943;-0.0513;1.1626;-1.2285;-54.0771;-134.7656;-157.6538;133.6652;0.7910;95.5756;35.1900 
619.943;-0.0513;1.1626;-1.2285;-54.0771;-134.7656;-157.6538;133.4070;1.8292;95.7129;35.1900 
619.953;-0.0806;0.9204;-0.9521;-55.7861;-124.0845;-145.5688;133.1378;2.7905;95.8502;35.2000 
619.953;-0.0806;0.9204;-0.9521;-55.7861;-124.0845;-145.5688;132.8687;3.7463;95.9766;35.2000 
620.053;-0.0806;0.9204;-0.9521;-55.7861;-124.0845;-145.5688;132.6050;4.6967;96.1029;35.3300 
620.053;-0.0806;0.9204;-0.9521;-55.7861;-124.0845;-145.5688;132.3413;5.6525;96.2238;35.3300 
620.053;-0.0806;0.9204;-0.9521;-55.7861;-124.0845;-145.5688;132.0776;6.6028;96.3336;35.3300 
620.053;-0.0806;0.9204;-0.9521;-55.7861;-124.0845;-145.5688;131.8140;7.5476;96.4435;35.2300 
620.063;-0.0806;0.9204;-0.9521;-55.7861;-124.0845;-145.5688;131.5558;8.4924;96.5479;35.2300 
620.063;-0.0806;0.9204;-0.9521;-55.7861;-124.0845;-145.5688;131.2976;9.4373;96.6522;35.2600 
620.063;-0.1519;0.8291;-0.7998;-57.8003;-106.1401;-125.3662;131.0229;10.2502;96.7621;35.2600 
620.063;-0.1519;0.8291;-0.7998;-57.8003;-106.1401;-125.3662;130.7483;11.0632;96.8665;35.2100 
620.063;-0.1519;0.8291;-0.7998;-57.8003;-106.1401;-125.3662;130.4736;11.8762;96.9708;35.2100 
620.063;-0.1519;0.8291;-0.7998;-57.8003;-106.1401;-125.3662;130.1990;12.6837;97.0642;35.2000 
620.063;-0.1519;0.8291;-0.7998;-57.8003;-106.1401;-125.3662;129.9298;13.4912;97.1576;35.2000 
620.063;-0.1519;0.8291;-0.7998;-57.8003;-106.1401;-125.3662;129.6552;14.2987;97.2455;35.2700 
620.063;-0.1519;0.8291;-0.7998;-57.8003;-106.1401;-125.3662;129.3805;15.1007;97.3334;35.2700 
620.063;-0.1519;0.8291;-0.7998;-57.8003;-106.1401;-125.3662;129.1113;15.9027;97.4103;35.1500 
620.063;-0.1978;0.6826;-0.6162;-60.7910;-85.0830;-101.3794;128.8202;16.5509;97.5092;35.1500 
620.063;-0.1978;0.6826;-0.6162;-60.7910;-85.0830;-101.3794;128.5236;17.2046;97.6025;35.2100 
620.063;-0.1978;0.6826;-0.6162;-60.7910;-85.0830;-101.3794;128.2324;17.8528;97.6904;35.2100 
620.063;-0.1978;0.6826;-0.6162;-60.7910;-85.0830;-101.3794;127.9358;18.5010;97.7728;35.1900 
620.063;-0.1978;0.6826;-0.6162;-60.7910;-85.0830;-101.3794;127.6447;19.1437;97.8552;35.1900 
620.063;-0.1978;0.6826;-0.6162;-60.7910;-85.0830;-101.3794;127.3535;19.7864;97.9266;35.1900 
620.063;-0.1978;0.6826;-0.6162;-60.7910;-85.0830;-101.3794;127.0569;20.4291;97.9980;35.2800 
620.063;-0.1978;0.6826;-0.6162;-60.7910;-85.0830;-101.3794;126.7657;21.0663;98.0640;35.2800 
620.063;-0.2554;0.6187;-0.5166;-66.1011;-63.5376;-75.6836;126.4362;21.5552;98.1573;35.2500 
620.073;-0.2554;0.6187;-0.5166;-66.1011;-63.5376;-75.6836;126.1121;22.0386;98.2452;35.2500 
620.073;-0.2554;0.6187;-0.5166;-66.1011;-63.5376;-75.6836;125.7825;22.5220;98.3331;35.2100 
620.073;-0.2554;0.6187;-0.5166;-66.1011;-63.5376;-75.6836;125.4529;23.0054;98.4155;35.2100 
620.073;-0.2554;0.6187;-0.5166;-66.1011;-63.5376;-75.6836;125.1288;23.4833;98.4924;35.1700 
620.083;-0.2554;0.6187;-0.5166;-66.1011;-63.5376;-75.6836;124.7992;23.9612;98.5693;35.1700 
620.083;-0.2554;0.6187;-0.5166;-66.1011;-63.5376;-75.6836;124.4696;24.4391;98.6407;35.2200 
620.083;-0.2554;0.6187;-0.5166;-66.1011;-63.5376;-75.6836;124.1400;24.9170;98.7067;35.2200 
620.083;-0.3110;0.6055;-0.4688;-74.4019;-44.0063;-50.2319;123.7665;25.2411;98.8000;35.1400 
620.093;-0.3110;0.6055;-0.4688;-74.4019;-44.0063;-50.2319;123.3875;25.5707;98.8934;35.1400 
620.093;-0.3110;0.6055;-0.4688;-74.4019;-44.0063;-50.2319;123.0139;25.8948;98.9813;35.1700 
620.103;-0.3110;0.6055;-0.4688;-74.4019;-44.0063;-50.2319;122.6349;26.2189;99.0692;35.1700 
620.103;-0.3110;0.6055;-0.4688;-74.4019;-44.0063;-50.2319;122.2614;26.5430;99.1516;35.2400 
620.113;-0.3110;0.6055;-0.4688;-74.4019;-44.0063;-50.2319;121.8878;26.8671;99.2285;35.2400 
620.113;-0.3110;0.6055;-0.4688;-74.4019;-44.0063;-50.2319;121.5088;27.1857;99.3054;35.2400 
620.133;-0.3110;0.6055;-0.4688;-74.4019;-44.0063;-50.2319;121.1353;27.5098;99.3768;35.2200 
620.133;-0.3481;0.6216;-0.4497;-85.9375;-28.6255;-26.9165;120.6958;27.6965;99.4702;35.2200 
620.133;-0.3481;0.6216;-0.4497;-85.9375;-28.6255;-26.9165;120.2563;27.8833;99.5526;35.2000 
620.133;-0.3481;0.6216;-0.4497;-85.9375;-28.6255;-26.9165;119.8169;28.0646;99.6405;35.2000 
620.143;-0.3481;0.6216;-0.4497;-85.9375;-28.6255;-26.9165;119.3829;28.2513;99.7229;35.2800 
620.143;-0.3481;0.6216;-0.4497;-85.9375;-28.6255;-26.9165;118.9435;28.4326;99.7998;35.2800 
620.163;-0.3481;0.6216;-0.4497;-85.9375;-28.6255;-26.9165;118.5095;28.6194;99.8712;35.2200 
620.243;-0.3481;0.6216;-0.4497;-85.9375;-28.6255;-26.9165;118.0756;28.8007;99.9426;35.2200 
620.243;-0.3481;0.6216;-0.4497;-85.9375;-28.6255;-26.9165;117.6361;28.9819;100.0085;35.1700 
620.263;-0.3608;0.6509;-0.4370;-100.8301;-18.5547;-6.5918;117.1198;29.0479;100.0800;35.1700 
620.263;-0.3608;0.6509;-0.4370;-100.8301;-18.5547;-6.5918;116.6034;29.1193;100.1459;35.1700 
620.263;-0.3608;0.6509;-0.4370;-100.8301;-18.5547;-6.5918;116.0925;29.1852;100.2118;35.1700 
620.263;-0.3608;0.6509;-0.4370;-100.8301;-18.5547;-6.5918;115.5762;29.2511;100.2722;35.2000 
620.263;-0.3608;0.6509;-0.4370;-100.8301;-18.5547;-6.5918;115.0653;29.3170;100.3326;35.2000 
620.263;-0.3608;0.6509;-0.4370;-100.8301;-18.5547;-6.5918;114.5544;29.3829;100.3931;35.1100 
620.263;-0.3608;0.6509;-0.4370;-100.8301;-18.5547;-6.5918;114.0436;29.4489;100.4480;35.1100 
620.263;-0.3608;0.6509;-0.4370;-100.8301;-18.5547;-6.5918;113.5382;29.5148;100.5029;35.1100 
620.263;-0.4395;0.6880;-0.3193;-118.3472;-13.9771;11.4136;112.9010;29.4928;100.5798;35.2300 
620.263;-0.4395;0.6880;-0.3193;-118.3472;-13.9771;11.4136;112.2638;29.4708;100.6622;35.2300 
620.263;-0.4395;0.6880;-0.3193;-118.3472;-13.9771;11.4136;111.6321;29.4489;100.7391;35.2600 
620.263;-0.4395;0.6880;-0.3193;-118.3472;-13.9771;11.4136;111.0004;29.4324;100.8160;35.2600 
620.263;-0.4395;0.6880;-0.3193;-118.3472;-13.9771;11.4136;110.3687;29.4104;100.8929;35.2500 
620.263;-0.4395;0.6880;-0.3193;-118.3472;-13.9771;11.4136;109.7424;29.3884;100.9698;35.2500 
620.263;-0.4395;0.6880;-0.3193;-118.3472;-13.9771;11.4136;109.1162;29.3665;101.0522;35.1600 
620.263;-0.4395;0.6880;-0.3193;-118.3472;-13.9771;11.4136;108.4900;29.3445;101.1346;35.1600 
620.263;-0.3994;0.6396;-0.2241;-131.7749;-14.0381;31.6772;107.7704;29.2236;101.1896;35.1900 
620.263;-0.3994;0.6396;-0.2241;-131.7749;-14.0381;31.6772;107.0508;29.0973;101.2500;35.1900 
620.263;-0.3994;0.6396;-0.2241;-131.7749;-14.0381;31.6772;106.3312;28.9764;101.3159;35.2000 
620.263;-0.3994;0.6396;-0.2241;-131.7749;-14.0381;31.6772;105.6171;28.8556;101.3818;35.2000 
620.283;-0.3994;0.6396;-0.2241;-131.7749;-14.0381;31.6772;104.9084;28.7292;101.4532;35.2600 
620.283;-0.3994;0.6396;-0.2241;-131.7749;-14.0381;31.6772;104.1943;28.6084;101.5302;35.2600 
620.303;-0.3994;0.6396;-0.2241;-131.7749;-14.0381;31.6772;103.4912;28.4821;101.6180;35.2300 
620.303;-0.3994;0.6396;-0.2241;-131.7749;-14.0381;31.6772;102.7881;28.3612;101.7059;35.2300 
620.303;-0.3896;0.5566;-0.0620;-131.8970;-17.2729;58.9600;102.0190;28.0975;101.7609;35.2300 
620.303;-0.3896;0.5566;-0.0620;-131.8970;-17.2729;58.9600;101.2555;27.8339;101.8213;35.2900 
620.303;-0.3896;0.5566;-0.0620;-131.8970;-17.2729;58.9600;100.4974;27.5702;101.8927;35.2900 
620.303;-0.3896;0.5566;-0.0620;-131.8970;-17.2729;58.9600;99.7449;27.3010;101.9641;35.2200 
620.313;-0.3896;0.5566;-0.0620;-131.8970;-17.2729;58.9600;98.9923;27.0374;102.0520;35.2200 
620.323;-0.3896;0.5566;-0.0620;-131.8970;-17.2729;58.9600;98.2397;26.7737;102.1399;35.2200 
620.323;-0.3896;0.5566;-0.0620;-131.8970;-17.2729;58.9600;97.4982;26.5100;102.2388;35.2200 
620.333;-0.3896;0.5566;-0.0620;-131.8970;-17.2729;58.9600;96.7566;26.2463;102.3431;35.1800 
620.333;-0.2295;0.6704;0.0498;-114.8071;-21.9116;93.5669;96.0864;25.7574;102.3596;35.1800 
620.343;-0.2295;0.6704;0.0498;-114.8071;-21.9116;93.5669;95.4272;25.2740;102.3816;35.1800 
620.343;-0.2295;0.6704;0.0498;-114.8071;-21.9116;93.5669;94.7736;24.7852;102.4146;35.1800 
620.353;-0.2295;0.6704;0.0498;-114.8071;-21.9116;93.5669;94.1199;24.3018;102.4530;35.2000 
620.353;-0.2295;0.6704;0.0498;-114.8071;-21.9116;93.5669;93.4717;23.8184;102.5024;35.2000 
620.353;-0.2295;0.6704;0.0498;-114.8071;-21.9116;93.5669;92.8290;23.3350;102.5574;35.2700 
620.353;-0.2295;0.6704;0.0498;-114.8071;-21.9116;93.5669;92.1918;22.8516;102.6178;35.2700 
620.433;-0.2295;0.6704;0.0498;-114.8071;-21.9116;93.5669;91.5601;22.3682;102.6837;35.2700 
620.433;-0.0073;0.6401;0.1045;-83.3740;-25.7568;128.3569;91.0876;21.6595;102.6892;35.1800 
620.453;-0.0073;0.6401;0.1045;-83.3740;-25.7568;128.3569;90.6152;20.9564;102.7002;35.1800 
620.453;-0.0073;0.6401;0.1045;-83.3740;-25.7568;128.3569;90.1538;20.2478;102.7222;35.2000 
620.453;-0.0073;0.6401;0.1045;-83.3740;-25.7568;128.3569;89.6924;19.5447;102.7441;35.2000 
620.453;-0.0073;0.6401;0.1045;-83.3740;-25.7568;128.3569;89.2365;18.8416;102.7716;35.2800 
620.453;-0.0073;0.6401;0.1045;-83.3740;-25.7568;128.3569;88.7805;18.1384;102.8101;35.2800 
620.453;-0.0073;0.6401;0.1045;-83.3740;-25.7568;128.3569;88.3301;17.4408;102.8485;35.2300 
620.453;-0.0073;0.6401;0.1045;-83.3740;-25.7568;128.3569;87.8851;16.7432;102.8979;35.2300 
620.453;0.1743;0.7554;0.1157;-49.1943;-26.6724;146.9727;87.6215;15.9137;102.9199;35.2500 
620.453;0.1743;0.7554;0.1157;-49.1943;-26.6724;146.9727;87.3633;15.0952;102.9419;35.2500 
620.453;0.1743;0.7554;0.1157;-49.1943;-26.6724;146.9727;87.1051;14.2712;102.9694;35.1200 
620.453;0.1743;0.7554;0.1157;-49.1943;-26.6724;146.9727;86.8524;13.4528;103.0023;35.1200 
620.453;0.1743;0.7554;0.1157;-49.1943;-26.6724;146.9727;86.5997;12.6343;103.0353;35.2100 
620.453;0.1743;0.7554;0.1157;-49.1943;-26.6724;146.9727;86.3470;11.8158;103.0682;35.2100 
620.453;0.1743;0.7554;0.1157;-49.1943;-26.6724;146.9727;86.0944;11.0028;103.1122;35.2400 
620.453;0.1743;0.7554;0.1157;-49.1943;-26.6724;146.9727;85.8472;10.1898;103.1506;35.2400 
620.453;0.2935;0.7202;0.1440;-24.4751;-24.1089;136.8408;85.7263;9.4043;103.1946;35.2400 
620.453;0.2935;0.7202;0.1440;-24.4751;-24.1089;136.8408;85.6055;8.6243;103.2385;35.2200 
620.453;0.2935;0.7202;0.1440;-24.4751;-24.1089;136.8408;85.4846;7.8442;103.2880;35.2200 
620.473;0.2935;0.7202;0.1440;-24.4751;-24.1089;136.8408;85.3638;7.0642;103.3374;35.1700 
620.483;0.2935;0.7202;0.1440;-24.4751;-24.1089;136.8408;85.2429;6.2842;103.3868;35.1700 
620.503;0.2935;0.7202;0.1440;-24.4751;-24.1089;136.8408;85.1276;5.5096;103.4363;35.1600 
620.533;0.2935;0.7202;0.1440;-24.4751;-24.1089;136.8408;85.0067;4.7406;103.4912;35.1600 
620.533;0.2935;0.7202;0.1440;-24.4751;-24.1089;136.8408;84.8914;3.9716;103.5406;35.2200 
620.553;0.3081;0.5391;0.1172;-11.6577;-20.2637;100.6470;84.8419;3.3618;103.5901;35.2200 
620.553;0.3081;0.5391;0.1172;-11.6577;-20.2637;100.6470;84.7925;2.7521;103.6395;35.1900 
620.633;0.3081;0.5391;0.1172;-11.6577;-20.2637;100.6470;84.7430;2.1478;103.6890;35.1900 
620.633;0.3081;0.5391;0.1172;-11.6577;-20.2637;100.6470;84.6881;1.5436;103.7384;35.2500 
620.633;0.3081;0.5391;0.1172;-11.6577;-20.2637;100.6470;84.6387;0.9448;103.7878;35.2500 
620.633;0.3081;0.5391;0.1172;-11.6577;-20.2637;100.6470;84.5892;0.3461;103.8318;35.2300 
620.643;0.3081;0.5391;0.1172;-11.6577;-20.2637;100.6470;84.5398;-0.2472;103.8812;35.2300 
620.643;0.3081;0.5391;0.1172;-11.6577;-20.2637;100.6470;84.4904;-0.8459;103.9307;35.2500 
620.643;0.2935;0.5386;0.1460;-4.7607;-19.1650;53.9551;84.4684;-1.2085;103.9691;35.2500 
620.643;0.2935;0.5386;0.1460;-4.7607;-19.1650;53.9551;84.4464;-1.5656;104.0021;35.2500 
620.643;0.2935;0.5386;0.1460;-4.7607;-19.1650;53.9551;84.4244;-1.9281;104.0405;35.1300 
620.643;0.2935;0.5386;0.1460;-4.7607;-19.1650;53.9551;84.4025;-2.2852;104.0735;35.1300 
620.643;0.2935;0.5386;0.1460;-4.7607;-19.1650;53.9551;84.3805;-2.6422;104.1119;35.2000 
620.643;0.2935;0.5386;0.1460;-4.7607;-19.1650;53.9551;84.3585;-2.9993;104.1449;35.2000 
620.643;0.2935;0.5386;0.1460;-4.7607;-19.1650;53.9551;84.3365;-3.3563;104.1833;35.2300 
620.643;0.2935;0.5386;0.1460;-4.7607;-19.1650;53.9551;84.3146;-3.7079;104.2218;35.2300 
620.643;0.3452;0.5449;0.1543;2.8687;-22.2168;17.0898;84.3365;-3.8892;104.2218;35.2600 
620.643;0.3452;0.5449;0.1543;2.8687;-22.2168;17.0898;84.3585;-4.0759;104.2218;35.2600 
620.663;0.3452;0.5449;0.1543;2.8687;-22.2168;17.0898;84.3805;-4.2572;104.2218;35.1900 
620.663;0.3452;0.5449;0.1543;2.8687;-22.2168;17.0898;84.4025;-4.4385;104.2218;35.1900 
620.683;0.3452;0.5449;0.1543;2.8687;-22.2168;17.0898;84.4244;-4.6143;104.2218;35.2000 
620.683;0.3452;0.5449;0.1543;2.8687;-22.2168;17.0898;84.4464;-4.7955;104.2273;35.2000 
620.693;0.3452;0.5449;0.1543;2.8687;-22.2168;17.0898;84.4629;-4.9768;104.2273;35.2100 
620.693;0.3730;0.7104;0.1235;14.0991;-26.1841;0.1221;84.5563;-5.0592;104.1943;35.2100 
620.693;0.3730;0.7104;0.1235;14.0991;-26.1841;0.1221;84.6442;-5.1361;104.1669;35.2000 
620.693;0.3730;0.7104;0.1235;14.0991;-26.1841;0.1221;84.7375;-5.2185;104.1394;35.2000 
620.703;0.3730;0.7104;0.1235;14.0991;-26.1841;0.1221;84.8254;-5.2954;104.1064;35.2000 
620.703;0.3730;0.7104;0.1235;14.0991;-26.1841;0.1221;84.9188;-5.3723;104.0790;35.2300 
620.713;0.3730;0.7104;0.1235;14.0991;-26.1841;0.1221;85.0067;-5.4547;104.0515;35.2300 
620.713;0.3730;0.7104;0.1235;14.0991;-26.1841;0.1221;85.1001;-5.5316;104.0240;35.2000 
620.713;0.3730;0.7104;0.1235;14.0991;-26.1841;0.1221;85.1880;-5.6085;103.9966;35.2000 
620.713;0.4517;0.9004;0.0635;25.4517;-25.1465;-1.0376;85.3473;-5.6744;103.9636;35.1800 
620.723;0.4517;0.9004;0.0635;25.4517;-25.1465;-1.0376;85.5066;-5.7404;103.9362;35.1800 
620.723;0.4517;0.9004;0.0635;25.4517;-25.1465;-1.0376;85.6659;-5.8008;103.9032;35.2000 
620.723;0.4517;0.9004;0.0635;25.4517;-25.1465;-1.0376;85.8252;-5.8667;103.8702;35.2000 
620.743;0.4517;0.9004;0.0635;25.4517;-25.1465;-1.0376;85.9790;-5.9271;103.8428;35.2600 
620.743;0.4517;0.9004;0.0635;25.4517;-25.1465;-1.0376;86.1383;-5.9930;103.8098;35.2600 
620.743;0.4517;0.9004;0.0635;25.4517;-25.1465;-1.0376;86.2976;-6.0535;103.7823;35.2000 
620.743;0.4517;0.9004;0.0635;25.4517;-25.1465;-1.0376;86.4514;-6.1139;103.7494;35.2000 
620.743;0.4390;0.9668;0.0000;29.9683;-15.4419;4.0283;86.6382;-6.1908;103.7659;35.2800 
620.743;0.4390;0.9668;0.0000;29.9683;-15.4419;4.0283;86.8195;-6.2622;103.7769;35.2800 
620.823;0.4390;0.9668;0.0000;29.9683;-15.4419;4.0283;87.0007;-6.3391;103.7933;35.2300 
620.823;0.4390;0.9668;0.0000;29.9683;-15.4419;4.0283;87.1820;-6.4105;103.8043;35.2300 
620.843;0.4390;0.9668;0.0000;29.9683;-15.4419;4.0283;87.3578;-6.4874;103.8208;35.2300 
620.843;0.4390;0.9668;0.0000;29.9683;-15.4419;4.0283;87.5391;-6.5588;103.8318;35.2200 
620.843;0.4390;0.9668;0.0000;29.9683;-15.4419;4.0283;87.7203;-6.6302;103.8428;35.2200 
620.843;0.4390;0.9668;0.0000;29.9683;-15.4419;4.0283;87.8961;-6.7072;103.8538;35.2300 
620.843;0.3965;1.0225;-0.0757;25.8789;-0.1221;7.2021;88.0554;-6.7786;103.9417;35.2300 
620.843;0.3965;1.0225;-0.0757;25.8789;-0.1221;7.2021;88.2092;-6.8500;104.0240;35.2300 
620.843;0.3965;1.0225;-0.0757;25.8789;-0.1221;7.2021;88.3685;-6.9269;104.1064;35.2300 
620.843;0.3965;1.0225;-0.0757;25.8789;-0.1221;7.2021;88.5223;-6.9983;104.1888;35.1800 
620.843;0.3965;1.0225;-0.0757;25.8789;-0.1221;7.2021;88.6816;-7.0697;104.2712;35.1800 
620.843;0.3965;1.0225;-0.0757;25.8789;-0.1221;7.2021;88.8354;-7.1466;104.3536;35.1600 
620.843;0.3965;1.0225;-0.0757;25.8789;-0.1221;7.2021;88.9893;-7.2180;104.4360;35.1600 
620.843;0.3965;1.0225;-0.0757;25.8789;-0.1221;7.2021;89.1431;-7.2894;104.5184;35.2300 
620.853;0.3398;1.0259;-0.0918;15.4419;13.7329;6.8970;89.2365;-7.3499;104.6722;35.2300 
620.853;0.3398;1.0259;-0.0918;15.4419;13.7329;6.8970;89.3298;-7.4103;104.8260;35.2900 
620.893;0.3398;1.0259;-0.0918;15.4419;13.7329;6.8970;89.4177;-7.4707;104.9744;35.2900 
620.893;0.3398;1.0259;-0.0918;15.4419;13.7329;6.8970;89.5111;-7.5366;105.1282;35.2900 
620.903;0.3398;1.0259;-0.0918;15.4419;13.7329;6.8970;89.6045;-7.5970;105.2765;35.1900 
620.903;0.3398;1.0259;-0.0918;15.4419;13.7329;6.8970;89.6924;-7.6575;105.4248;35.1900 
620.913;0.3398;1.0259;-0.0918;15.4419;13.7329;6.8970;89.7858;-7.7179;105.5731;35.2800 
620.913;0.3398;1.0259;-0.0918;15.4419;13.7329;6.8970;89.8737;-7.7783;105.7269;35.2800 
620.933;0.2935;1.0049;-0.0713;3.4180;20.6299;5.0659;89.8956;-7.8278;105.9137;35.2200 
620.933;0.2935;1.0049;-0.0713;3.4180;20.6299;5.0659;89.9176;-7.8717;106.1060;35.2200 
620.943;0.2935;1.0049;-0.0713;3.4180;20.6299;5.0659;89.9396;-7.9211;106.2927;35.3100 
620.943;0.2935;1.0049;-0.0713;3.4180;20.6299;5.0659;89.9615;-7.9651;106.4795;35.3100 
620.963;0.2935;1.0049;-0.0713;3.4180;20.6299;5.0659;89.9780;-8.0145;106.6718;35.1900 
620.963;0.2935;1.0049;-0.0713;3.4180;20.6299;5.0659;90.0000;-8.0585;106.8585;35.1900 
620.983;0.2935;1.0049;-0.0713;3.4180;20.6299;5.0659;90.0220;-8.1024;107.0453;35.2400 
620.983;0.2935;1.0049;-0.0713;3.4180;20.6299;5.0659;90.0385;-8.1519;107.2375;35.2400 
621.073;0.2637;0.9922;-0.0508;-5.1270;19.5313;2.8076;90.0165;-8.1793;107.4243;35.2200 
621.083;0.2637;0.9922;-0.0508;-5.1270;19.5313;2.8076;89.9890;-8.2123;107.6111;35.2200 
621.083;0.2637;0.9922;-0.0508;-5.1270;19.5313;2.8076;89.9615;-8.2452;107.8033;35.2100 
621.083;0.2637;0.9922;-0.0508;-5.1270;19.5313;2.8076;89.9341;-8.2727;107.9901;35.2100 
621.083;0.2637;0.9922;-0.0508;-5.1270;19.5313;2.8076;89.9121;-8.3057;108.1769;35.2100 
621.083;0.2637;0.9922;-0.0508;-5.1270;19.5313;2.8076;89.8846;-8.3331;108.3636;35.2600 
621.083;0.2637;0.9922;-0.0508;-5.1270;19.5313;2.8076;89.8572;-8.3661;108.5504;35.2600 
621.123;0.2637;0.9922;-0.0508;-5.1270;19.5313;2.8076;89.8297;-8.3936;108.7317;35.2300 
621.123;0.2461;0.9756;-0.0288;-8.7891;13.7939;0.9155;89.7858;-8.4155;108.8910;35.2300 
621.133;0.2461;0.9756;-0.0288;-8.7891;13.7939;0.9155;89.7418;-8.4375;109.0503;35.2100 
621.133;0.2461;0.9756;-0.0288;-8.7891;13.7939;0.9155;89.6979;-8.4540;109.2096;35.2100 
621.143;0.2461;0.9756;-0.0288;-8.7891;13.7939;0.9155;89.6539;-8.4760;109.3689;35.2100 
621.143;0.2461;0.9756;-0.0288;-8.7891;13.7939;0.9155;89.6100;-8.4924;109.5227;35.2100 
621.153;0.2461;0.9756;-0.0288;-8.7891;13.7939;0.9155;89.5660;-8.5089;109.6820;35.2100 
621.153;0.2461;0.9756;-0.0288;-8.7891;13.7939;0.9155;89.5221;-8.5309;109.8413;35.2100 
621.173;0.2461;0.9756;-0.0288;-8.7891;13.7939;0.9155;89.4836;-8.5474;109.9951;35.2300 
621.173;0.2412;0.9624;-0.0132;-8.6670;7.2021;-0.1831;89.4397;-8.5638;110.1215;35.2300 
621.263;0.2412;0.9624;-0.0132;-8.6670;7.2021;-0.1831;89.4012;-8.5748;110.2423;35.2800 
621.263;0.2412;0.9624;-0.0132;-8.6670;7.2021;-0.1831;89.3573;-8.5913;110.3687;35.2800 
621.283;0.2412;0.9624;-0.0132;-8.6670;7.2021;-0.1831;89.3188;-8.6023;110.4895;35.2000 
621.283;0.2412;0.9624;-0.0132;-8.6670;7.2021;-0.1831;89.2804;-8.6188;110.6158;35.2000 
621.283;0.2412;0.9624;-0.0132;-8.6670;7.2021;-0.1831;89.2365;-8.6298;110.7367;35.2000 
621.283;0.2412;0.9624;-0.0132;-8.6670;7.2021;-0.1831;89.1980;-8.6407;110.8575;35.2000 
621.303;0.2412;0.9624;-0.0132;-8.6670;7.2021;-0.1831;89.1595;-8.6572;110.9839;35.2000 
621.363;0.2461;0.9541;-0.0044;-6.4087;1.9531;-0.7935;89.1321;-8.6682;111.0828;35.1300 
621.363;0.2461;0.9541;-0.0044;-6.4087;1.9531;-0.7935;89.1046;-8.6792;111.1761;35.1300 
621.453;0.2461;0.9541;-0.0044;-6.4087;1.9531;-0.7935;89.0826;-8.6902;111.2750;35.2200 
621.453;0.2461;0.9541;-0.0044;-6.4087;1.9531;-0.7935;89.0552;-8.7012;111.3684;35.2200 
621.453;0.2461;0.9541;-0.0044;-6.4087;1.9531;-0.7935;89.0277;-8.7122;111.4673;35.2500 
621.462;0.2461;0.9541;-0.0044;-6.4087;1.9531;-0.7935;89.0057;-8.7286;111.5607;35.2500 
621.462;0.2461;0.9541;-0.0044;-6.4087;1.9531;-0.7935;88.9783;-8.7396;111.6541;35.2200 
621.462;0.2461;0.9541;-0.0044;-6.4087;1.9531;-0.7935;88.9563;-8.7506;111.7529;35.2200 
621.512;0.2539;0.9502;-0.0020;-3.6011;-1.2817;-0.8545;88.9453;-8.7616;111.8298;35.2800 
621.512;0.2539;0.9502;-0.0020;-3.6011;-1.2817;-0.8545;88.9343;-8.7781;111.9067;35.2800 
621.522;0.2539;0.9502;-0.0020;-3.6011;-1.2817;-0.8545;88.9288;-8.7891;111.9836;35.2400 
621.522;0.2539;0.9502;-0.0020;-3.6011;-1.2817;-0.8545;88.9178;-8.8000;112.0551;35.2400 
621.522;0.2539;0.9502;-0.0020;-3.6011;-1.2817;-0.8545;88.9069;-8.8165;112.1265;35.2600 
621.522;0.2539;0.9502;-0.0020;-3.6011;-1.2817;-0.8545;88.9014;-8.8275;112.2034;35.2600 
621.543;0.2539;0.9502;-0.0020;-3.6011;-1.2817;-0.8545;88.8904;-8.8385;112.2748;35.2600 
621.543;0.2539;0.9502;-0.0020;-3.6011;-1.2817;-0.8545;88.8794;-8.8550;112.3462;35.1800 
621.543;0.2617;0.9497;-0.0029;-1.2207;-2.7466;-0.7324;88.8849;-8.8660;112.4121;35.1800 
621.543;0.2617;0.9497;-0.0029;-1.2207;-2.7466;-0.7324;88.8904;-8.8824;112.4780;35.2300 
621.552;0.2617;0.9497;-0.0029;-1.2207;-2.7466;-0.7324;88.8959;-8.8989;112.5439;35.2300 
621.552;0.2617;0.9497;-0.0029;-1.2207;-2.7466;-0.7324;88.8959;-8.9099;112.6099;35.2100 
621.552;0.2617;0.9497;-0.0029;-1.2207;-2.7466;-0.7324;88.9014;-8.9264;112.6758;35.2100 
621.552;0.2617;0.9497;-0.0029;-1.2207;-2.7466;-0.7324;88.9069;-8.9429;112.7362;35.2600 
621.652;0.2617;0.9497;-0.0029;-1.2207;-2.7466;-0.7324;88.9124;-8.9539;112.8021;35.2600 
621.652;0.2617;0.9497;-0.0029;-1.2207;-2.7466;-0.7324;88.9178;-8.9703;112.8680;35.2000 
621.652;0.2681;0.9512;-0.0054;0.3052;-2.8076;-0.4272;88.9288;-8.9868;112.9340;35.2000 
621.652;0.2681;0.9512;-0.0054;0.3052;-2.8076;-0.4272;88.9398;-9.0033;112.9944;35.2400 
621.662;0.2681;0.9512;-0.0054;0.3052;-2.8076;-0.4272;88.9508;-9.0198;113.0603;35.2400 
621.662;0.2681;0.9512;-0.0054;0.3052;-2.8076;-0.4272;88.9673;-9.0363;113.1207;35.2600 
621.662;0.2681;0.9512;-0.0054;0.3052;-2.8076;-0.4272;88.9783;-9.0527;113.1866;35.2600 
621.662;0.2681;0.9512;-0.0054;0.3052;-2.8076;-0.4272;88.9893;-9.0747;113.2471;35.2000 
621.662;0.2681;0.9512;-0.0054;0.3052;-2.8076;-0.4272;89.0002;-9.0912;113.3130;35.2000 
621.662;0.2681;0.9512;-0.0054;0.3052;-2.8076;-0.4272;89.0112;-9.1077;113.3789;35.2000 
621.662;0.2710;0.9536;-0.0083;1.0986;-2.1362;-0.1831;89.0277;-9.1241;113.4448;35.2000 
621.682;0.2710;0.9536;-0.0083;1.0986;-2.1362;-0.1831;89.0442;-9.1406;113.5107;35.2000 
621.682;0.2710;0.9536;-0.0083;1.0986;-2.1362;-0.1831;89.0607;-9.1571;113.5767;35.2300 
621.682;0.2710;0.9536;-0.0083;1.0986;-2.1362;-0.1831;89.0771;-9.1791;113.6426;35.2300 
621.682;0.2710;0.9536;-0.0083;1.0986;-2.1362;-0.1831;89.0936;-9.1956;113.7085;35.2500 
621.682;0.2710;0.9536;-0.0083;1.0986;-2.1362;-0.1831;89.1101;-9.2120;113.7689;35.2500 
621.682;0.2710;0.9536;-0.0083;1.0986;-2.1362;-0.1831;89.1266;-9.2285;113.8348;35.2800 
621.682;0.2710;0.9536;-0.0083;1.0986;-2.1362;-0.1831;89.1376;-9.2505;113.9008;35.2800 
621.682;0.2725;0.9556;-0.0107;1.2207;-1.2207;0.0000;89.1541;-9.2670;113.9667;35.2300 
621.702;0.2725;0.9556;-0.0107;1.2207;-1.2207;0.0000;89.1705;-9.2834;114.0326;35.2300 
621.702;0.2725;0.9556;-0.0107;1.2207;-1.2207;0.0000;89.1870;-9.3054;114.1040;35.2200 
621.702;0.2725;0.9556;-0.0107;1.2207;-1.2207;0.0000;89.2035;-9.3219;114.1699;35.2200 
621.702;0.2725;0.9556;-0.0107;1.2207;-1.2207;0.0000;89.2200;-9.3439;114.2358;35.1400 
621.722;0.2725;0.9556;-0.0107;1.2207;-1.2207;0.0000;89.2365;-9.3604;114.3073;35.1400 
621.722;0.2725;0.9556;-0.0107;1.2207;-1.2207;0.0000;89.2474;-9.3768;114.3732;35.1400 
621.722;0.2725;0.9556;-0.0107;1.2207;-1.2207;0.0000;89.2639;-9.3988;114.4391;35.1800 
621.722;0.2720;0.9570;-0.0122;0.9766;-0.4272;0.0610;89.2804;-9.4153;114.5105;35.1800 
621.732;0.2720;0.9570;-0.0122;0.9766;-0.4272;0.0610;89.2914;-9.4318;114.5819;35.2300 
621.732;0.2720;0.9570;-0.0122;0.9766;-0.4272;0.0610;89.3079;-9.4537;114.6478;35.2300 
621.732;0.2720;0.9570;-0.0122;0.9766;-0.4272;0.0610;89.3188;-9.4702;114.7192;35.2300 
621.742;0.2720;0.9570;-0.0122;0.9766;-0.4272;0.0610;89.3298;-9.4867;114.7906;35.2300 
621.742;0.2720;0.9570;-0.0122;0.9766;-0.4272;0.0610;89.3463;-9.5087;114.8566;35.2700 
621.742;0.2720;0.9570;-0.0122;0.9766;-0.4272;0.0610;89.3573;-9.5251;114.9280;35.2700 
621.742;0.2720;0.9570;-0.0122;0.9766;-0.4272;0.0610;89.3738;-9.5416;114.9939;35.2100 
621.762;0.2710;0.9580;-0.0127;0.6104;0.0610;0.0610;89.3848;-9.5581;115.0653;35.2100 
621.762;0.2710;0.9580;-0.0127;0.6104;0.0610;0.0610;89.3958;-9.5801;115.1367;35.1700 
621.762;0.2710;0.9580;-0.0127;0.6104;0.0610;0.0610;89.4067;-9.5966;115.2026;35.1700 
621.762;0.2710;0.9580;-0.0127;0.6104;0.0610;0.0610;89.4177;-9.6130;115.2740;35.2200 
621.772;0.2710;0.9580;-0.0127;0.6104;0.0610;0.0610;89.4232;-9.6295;115.3400;35.2200 
621.772;0.2710;0.9580;-0.0127;0.6104;0.0610;0.0610;89.4342;-9.6515;115.4114;35.2500 
621.772;0.2710;0.9580;-0.0127;0.6104;0.0610;0.0610;89.4452;-9.6680;115.4828;35.2500 
621.772;0.2710;0.9580;-0.0127;0.6104;0.0610;0.0610;89.4562;-9.6844;115.5487;35.2500 
621.792;0.2695;0.9580;-0.0132;0.2441;0.3052;0.0610;89.4672;-9.7009;115.6201;35.2300 
621.792;0.2695;0.9580;-0.0132;0.2441;0.3052;0.0610;89.4727;-9.7174;115.6915;35.2300 
621.792;0.2695;0.9580;-0.0132;0.2441;0.3052;0.0610;89.4836;-9.7339;115.7629;35.2000 
621.792;0.2695;0.9580;-0.0132;0.2441;0.3052;0.0610;89.4891;-9.7504;115.8344;35.2000 
621.822;0.2695;0.9580;-0.0132;0.2441;0.3052;0.0610;89.5001;-9.7668;115.9003;35.2400 
621.822;0.2695;0.9580;-0.0132;0.2441;0.3052;0.0610;89.5056;-9.7888;115.9662;35.2400 
621.822;0.2695;0.9580;-0.0132;0.2441;0.3052;0.0610;89.5166;-9.8053;116.0376;35.2200 
621.822;0.2695;0.9580;-0.0132;0.2441;0.3052;0.0610;89.5221;-9.8218;116.1035;35.2200 
621.922;0.2681;0.9580;-0.0127;0.0000;0.3662;0.0000;89.5276;-9.8383;116.1694;35.2000 
621.922;0.2681;0.9580;-0.0127;0.0000;0.3662;0.0000;89.5386;-9.8547;116.2354;35.2000 
621.922;0.2681;0.9580;-0.0127;0.0000;0.3662;0.0000;89.5441;-9.8712;116.3013;35.2300 
621.922;0.2681;0.9580;-0.0127;0.0000;0.3662;0.0000;89.5496;-9.8877;116.3672;35.2300 
621.942;0.2681;0.9580;-0.0127;0.0000;0.3662;0.0000;89.5551;-9.9042;116.4386;35.1400 
621.942;0.2681;0.9580;-0.0127;0.0000;0.3662;0.0000;89.5605;-9.9207;116.5045;35.1400 
621.942;0.2681;0.9580;-0.0127;0.0000;0.3662;0.0000;89.5715;-9.9371;116.5704;35.2100 
621.942;0.2681;0.9580;-0.0127;0.0000;0.3662;0.0000;89.5770;-9.9481;116.6364;35.2100 
621.942;0.2676;0.9580;-0.0122;-0.0610;0.3052;0.0000;89.5825;-9.9646;116.7023;35.2100 
621.942;0.2676;0.9580;-0.0122;-0.0610;0.3052;0.0000;89.5880;-9.9811;116.7682;35.2700 
621.942;0.2676;0.9580;-0.0122;-0.0610;0.3052;0.0000;89.5935;-9.9976;116.8396;35.2700 
621.942;0.2676;0.9580;-0.0122;-0.0610;0.3052;0.0000;89.5990;-10.0140;116.9055;35.2200 
621.942;0.2676;0.9580;-0.0122;-0.0610;0.3052;0.0000;89.6045;-10.0305;116.9714;35.2200 
621.942;0.2676;0.9580;-0.0122;-0.0610;0.3052;0.0000;89.6100;-10.0470;117.0319;35.1700 
621.942;0.2676;0.9580;-0.0122;-0.0610;0.3052;0.0000;89.6155;-10.0635;117.0978;35.1700 
621.942;0.2676;0.9580;-0.0122;-0.0610;0.3052;0.0000;89.6210;-10.0800;117.1637;35.2300 
621.942;0.2676;0.9575;-0.0122;-0.1221;0.1831;0.0000;89.6265;-10.0909;117.2296;35.2300 
621.942;0.2676;0.9575;-0.0122;-0.1221;0.1831;0.0000;89.6320;-10.1074;117.2955;35.1900 
621.942;0.2676;0.9575;-0.0122;-0.1221;0.1831;0.0000;89.6375;-10.1239;117.3615;35.1900 
621.942;0.2676;0.9575;-0.0122;-0.1221;0.1831;0.0000;89.6429;-10.1404;117.4219;35.2200 
621.942;0.2676;0.9575;-0.0122;-0.1221;0.1831;0.0000;89.6484;-10.1569;117.4878;35.2200 
621.942;0.2676;0.9575;-0.0122;-0.1221;0.1831;0.0000;89.6539;-10.1733;117.5537;35.2000 
621.942;0.2676;0.9575;-0.0122;-0.1221;0.1831;0.0000;89.6594;-10.1843;117.6141;35.2000 
621.962;0.2676;0.9575;-0.0122;-0.1221;0.1831;0.0000;89.6649;-10.2008;117.6801;35.2300 
621.962;0.2676;0.9575;-0.0122;-0.1221;0.0610;0.0000;89.6704;-10.2173;117.7405;35.2300 
621.962;0.2676;0.9575;-0.0122;-0.1221;0.0610;0.0000;89.6759;-10.2338;117.8009;35.2300 
621.962;0.2676;0.9575;-0.0122;-0.1221;0.0610;0.0000;89.6814;-10.2502;117.8668;35.2000 
621.972;0.2676;0.9575;-0.0122;-0.1221;0.0610;0.0000;89.6869;-10.2612;117.9272;35.2000 
621.972;0.2676;0.9575;-0.0122;-0.1221;0.0610;0.0000;89.6924;-10.2777;117.9877;35.2000 
621.972;0.2676;0.9575;-0.0122;-0.1221;0.0610;0.0000;89.6979;-10.2942;118.0481;35.2000 
621.992;0.2676;0.9575;-0.0122;-0.1221;0.0610;0.0000;89.7034;-10.3107;118.1140;35.2400 
621.992;0.2676;0.9575;-0.0122;-0.1221;0.0610;0.0000;89.7089;-10.3217;118.1744;35.2400 
621.992;0.2681;0.9570;-0.0122;-0.0610;0.0000;0.0000;89.7144;-10.3381;118.2349;35.1700 
621.992;0.2681;0.9570;-0.0122;-0.0610;0.0000;0.0000;89.7198;-10.3546;118.2953;35.1700 
621.992;0.2681;0.9570;-0.0122;-0.0610;0.0000;0.0000;89.7253;-10.3711;118.3557;35.2200 
621.992;0.2681;0.9570;-0.0122;-0.0610;0.0000;0.0000;89.7308;-10.3821;118.4161;35.2200 
621.992;0.2681;0.9570;-0.0122;-0.0610;0.0000;0.0000;89.7363;-10.3986;118.4711;35.3100 
621.992;0.2681;0.9570;-0.0122;-0.0610;0.0000;0.0000;89.7418;-10.4150;118.5315;35.3100 
622.002;0.2681;0.9570;-0.0122;-0.0610;0.0000;0.0000;89.7473;-10.4315;118.5919;35.2600 
622.002;0.2681;0.9570;-0.0122;-0.0610;0.0000;0.0000;89.7528;-10.4425;118.6523;35.2600 
622.002;0.2686;0.9565;-0.0122;0.0000;0.0000;0.0000;89.7583;-10.4590;118.7128;35.2600 
622.002;0.2686;0.9565;-0.0122;0.0000;0.0000;0.0000;89.7638;-10.4755;118.7787;35.2100 
622.022;0.2686;0.9565;-0.0122;0.0000;0.0000;0.0000;89.7693;-10.4865;118.8391;35.2100 
622.022;0.2686;0.9565;-0.0122;0.0000;0.0000;0.0000;89.7748;-10.5029;118.8995;35.2200 
622.022;0.2686;0.9565;-0.0122;0.0000;0.0000;0.0000;89.7803;-10.5194;118.9600;35.2200 
622.022;0.2686;0.9565;-0.0122;0.0000;0.0000;0.0000;89.7858;-10.5304;119.0149;35.1800 
622.112;0.2686;0.9565;-0.0122;0.0000;0.0000;0.0000;89.7913;-10.5469;119.0753;35.1800 
622.112;0.2686;0.9565;-0.0122;0.0000;0.0000;0.0000;89.7968;-10.5634;119.1357;35.1900 
622.112;0.2686;0.9565;-0.0117;0.0000;0.0000;0.0000;89.8022;-10.5798;119.1907;35.1900 
622.112;0.2686;0.9565;-0.0117;0.0000;0.0000;0.0000;89.8077;-10.5908;119.2511;35.2000 
622.132;0.2686;0.9565;-0.0117;0.0000;0.0000;0.0000;89.8132;-10.6073;119.3060;35.2000 
622.132;0.2686;0.9565;-0.0117;0.0000;0.0000;0.0000;89.8187;-10.6183;119.3665;35.2300 
622.132;0.2686;0.9565;-0.0117;0.0000;0.0000;0.0000;89.8242;-10.6348;119.4214;35.2300 
622.132;0.2686;0.9565;-0.0117;0.0000;0.0000;0.0000;89.8297;-10.6512;119.4818;35.2500 
622.132;0.2686;0.9565;-0.0117;0.0000;0.0000;0.0000;89.8352;-10.6622;119.5367;35.2500 
622.132;0.2686;0.9565;-0.0117;0.0000;0.0000;0.0000;89.8407;-10.6787;119.5972;35.2100 
622.132;0.2686;0.9565;-0.0117;0.0000;0.0000;0.0000;89.8407;-10.6952;119.6521;35.2100 
622.132;0.2686;0.9565;-0.0117;0.0000;0.0000;0.0000;89.8462;-10.7062;119.7070;35.2100 
622.132;0.2686;0.9565;-0.0117;0.0000;0.0000;0.0000;89.8517;-10.7227;119.7620;35.2200 
622.132;0.2686;0.9565;-0.0117;0.0000;0.0000;0.0000;89.8572;-10.7336;119.8169;35.2200 
622.132;0.2686;0.9565;-0.0117;0.0000;0.0000;0.0000;89.8627;-10.7501;119.8718;35.2800 
622.152;0.2686;0.9565;-0.0117;0.0000;0.0000;0.0000;89.8682;-10.7666;119.9323;35.2800 
622.152;0.2686;0.9565;-0.0117;0.0000;0.0000;0.0000;89.8737;-10.7776;119.9872;35.2300 
622.152;0.2686;0.9565;-0.0117;0.0000;0.0000;0.0000;89.8792;-10.7941;120.0421;35.2300 
622.152;0.2681;0.9565;-0.0117;0.0000;0.0000;0.0000;89.8846;-10.8051;120.0970;35.2300 
622.182;0.2681;0.9565;-0.0117;0.0000;0.0000;0.0000;89.8846;-10.8215;120.1520;35.2300 
622.182;0.2681;0.9565;-0.0117;0.0000;0.0000;0.0000;89.8901;-10.8325;120.2124;35.1400 
622.182;0.2681;0.9565;-0.0117;0.0000;0.0000;0.0000;89.8956;-10.8490;120.2673;35.1400 
622.182;0.2681;0.9565;-0.0117;0.0000;0.0000;0.0000;89.9011;-10.8600;120.3223;35.2300 
622.202;0.2681;0.9565;-0.0117;0.0000;0.0000;0.0000;89.9066;-10.8765;120.3717;35.2300 
622.202;0.2681;0.9565;-0.0117;0.0000;0.0000;0.0000;89.9121;-10.8875;120.4266;35.1900 
622.202;0.2681;0.9565;-0.0117;0.0000;0.0000;0.0000;89.9176;-10.9039;120.4816;35.1900 
622.202;0.2681;0.9570;-0.0112;0.0000;0.0000;0.0000;89.9176;-10.9149;120.5365;35.2400 
622.212;0.2681;0.9570;-0.0112;0.0000;0.0000;0.0000;89.9231;-10.9314;120.5914;35.2400 
622.212;0.2681;0.9570;-0.0112;0.0000;0.0000;0.0000;89.9286;-10.9424;120.6464;35.2400 
622.212;0.2681;0.9570;-0.0112;0.0000;0.0000;0.0000;89.9341;-10.9589;120.7013;35.2600 
622.212;0.2681;0.9570;-0.0112;0.0000;0.0000;0.0000;89.9396;-10.9698;120.7562;35.2600 
622.222;0.2681;0.9570;-0.0112;0.0000;0.0000;0.0000;89.9396;-10.9863;120.8112;35.2300 
622.222;0.2681;0.9570;-0.0112;0.0000;0.0000;0.0000;89.9451;-10.9973;120.8661;35.2300 
622.222;0.2681;0.9570;-0.0112;0.0000;0.0000;0.0000;89.9506;-11.0138;120.9210;35.2300 
622.222;0.2681;0.9570;-0.0112;0.0000;0.0000;0.0000;89.9561;-11.0248;120.9760;35.2300 
622.302;0.2681;0.9570;-0.0112;0.0000;0.0000;0.0000;89.9615;-11.0413;121.0309;35.1900 
622.302;0.2681;0.9570;-0.0112;0.0000;0.0000;0.0000;89.9615;-11.0522;121.0803;35.1900 
622.302;0.2681;0.9570;-0.0112;0.0000;0.0000;0.0000;89.9670;-11.0632;121.1353;35.1800 
622.322;0.2681;0.9570;-0.0112;0.0000;0.0000;0.0000;89.9725;-11.0797;121.1902;35.1800 
622.322;0.2681;0.9570;-0.0112;0.0000;0.0000;0.0000;89.9780;-11.0907;121.2396;35.2100 
622.322;0.2681;0.9570;-0.0112;0.0000;0.0000;0.0000;89.9780;-11.1072;121.2946;35.2100 
622.322;0.2681;0.9570;-0.0112;0.0000;0.0000;0.0000;89.9835;-11.1182;121.3495;35.3100 
622.322;0.2686;0.9570;-0.0112;0.0000;0.0000;0.0000;89.9890;-11.1292;121.3989;35.3100 
622.322;0.2686;0.9570;-0.0112;0.0000;0.0000;0.0000;89.9945;-11.1456;121.4484;35.2100 
622.322;0.2686;0.9570;-0.0112;0.0000;0.0000;0.0000;89.9945;-11.1566;121.5033;35.2100 
622.322;0.2686;0.9570;-0.0112;0.0000;0.0000;0.0000;90.0000;-11.1731;121.5527;35.2100 
622.322;0.2686;0.9570;-0.0112;0.0000;0.0000;0.0000;90.0055;-11.1841;121.6077;35.2800 
622.322;0.2686;0.9570;-0.0112;0.0000;0.0000;0.0000;90.0110;-11.1951;121.6571;35.2800 
622.322;0.2686;0.9570;-0.0112;0.0000;0.0000;0.0000;90.0110;-11.2115;121.7065;35.2600 
622.322;0.2686;0.9570;-0.0112;0.0000;0.0000;0.0000;90.0165;-11.2225;121.7615;35.2600 
622.322;0.2686;0.9570;-0.0117;0.0000;0.0000;0.0000;90.0220;-11.2335;121.8109;35.2500 
622.322;0.2686;0.9570;-0.0117;0.0000;0.0000;0.0000;90.0220;-11.2500;121.8604;35.2500 
622.322;0.2686;0.9570;-0.0117;0.0000;0.0000;0.0000;90.0275;-11.2610;121.9153;35.3100 
622.322;0.2686;0.9570;-0.0117;0.0000;0.0000;0.0000;90.0330;-11.2720;121.9647;35.3100 
622.332;0.2686;0.9570;-0.0117;0.0000;0.0000;0.0000;90.0385;-11.2885;122.0197;35.2500 
622.332;0.2686;0.9570;-0.0117;0.0000;0.0000;0.0000;90.0385;-11.2994;122.0691;35.2500 
622.332;0.2686;0.9570;-0.0117;0.0000;0.0000;0.0000;90.0439;-11.3104;122.1240;35.1800 
622.332;0.2686;0.9570;-0.0117;0.0000;0.0000;0.0000;90.0494;-11.3269;122.1735;35.1800 
622.352;0.2686;0.9570;-0.0122;0.0000;0.0000;0.0000;90.0549;-11.3379;122.2229;35.1600 
622.352;0.2686;0.9570;-0.0122;0.0000;0.0000;0.0000;90.0549;-11.3489;122.2723;35.1600 
622.352;0.2686;0.9570;-0.0122;0.0000;0.0000;0.0000;90.0604;-11.3599;122.3273;35.1700 
622.362;0.2686;0.9570;-0.0122;0.0000;0.0000;0.0000;90.0659;-11.3763;122.3767;35.1700 
622.362;0.2686;0.9570;-0.0122;0.0000;0.0000;0.0000;90.0659;-11.3873;122.4261;35.1700 
622.362;0.2686;0.9570;-0.0122;0.0000;0.0000;0.0000;90.0714;-11.3983;122.4756;35.2100 
622.362;0.2686;0.9570;-0.0122;0.0000;0.0000;0.0000;90.0769;-11.4148;122.5305;35.2100 
622.382;0.2686;0.9570;-0.0122;0.0000;0.0000;0.0000;90.0769;-11.4258;122.5800;35.2500 
622.382;0.2686;0.9570;-0.0122;0.0000;0.0000;0.0000;90.0824;-11.4368;122.6294;35.2500 
622.382;0.2686;0.9570;-0.0122;0.0000;0.0000;0.0000;90.0879;-11.4478;122.6843;35.2100 
622.382;0.2686;0.9570;-0.0122;0.0000;0.0000;0.0000;90.0934;-11.4642;122.7338;35.2100 
622.422;0.2686;0.9570;-0.0122;0.0000;0.0000;0.0000;90.0934;-11.4752;122.7887;35.1600 
622.422;0.2686;0.9570;-0.0122;0.0000;0.0000;0.0000;90.0989;-11.4862;122.8381;35.1600 
622.422;0.2686;0.9570;-0.0122;0.0000;0.0000;0.0000;90.1044;-11.4972;122.8876;35.2300 
622.422;0.2686;0.9570;-0.0122;0.0000;0.0000;0.0000;90.1044;-11.5082;122.9370;35.2300 
622.502;0.2686;0.9570;-0.0122;0.0000;0.0000;0.0000;90.1099;-11.5247;122.9865;35.2100 
622.502;0.2690;0.9570;-0.0127;0.0000;0.0000;0.0000;90.1154;-11.5356;123.0359;35.2100 
622.502;0.2690;0.9570;-0.0127;0.0000;0.0000;0.0000;90.1154;-11.5466;123.0853;35.1700 
622.502;0.2690;0.9570;-0.0127;0.0000;0.0000;0.0000;90.1208;-11.5576;123.1348;35.1700 
622.512;0.2690;0.9570;-0.0127;0.0000;0.0000;0.0000;90.1263;-11.5686;123.1787;35.1700 
622.512;0.2690;0.9570;-0.0127;0.0000;0.0000;0.0000;90.1263;-11.5851;123.2281;35.2100 
622.512;0.2690;0.9570;-0.0127;0.0000;0.0000;0.0000;90.1318;-11.5961;123.2721;35.2100 
622.512;0.2690;0.9570;-0.0127;0.0000;0.0000;0.0000;90.1373;-11.6071;123.3215;35.2500 
622.512;0.2690;0.9570;-0.0127;0.0000;0.0000;0.0000;90.1373;-11.6180;123.3655;35.2500 
622.512;0.2690;0.9575;-0.0122;0.0000;0.0000;0.0000;90.1428;-11.6290;123.4149;35.1700 
622.512;0.2690;0.9575;-0.0122;0.0000;0.0000;0.0000;90.1428;-11.6400;123.4589;35.1700 
622.512;0.2690;0.9575;-0.0122;0.0000;0.0000;0.0000;90.1483;-11.6565;123.5028;35.2400 
622.512;0.2690;0.9575;-0.0122;0.0000;0.0000;0.0000;90.1538;-11.6675;123.5468;35.2400 
622.512;0.2690;0.9575;-0.0122;0.0000;0.0000;0.0000;90.1538;-11.6785;123.5907;35.2100 
622.512;0.2690;0.9575;-0.0122;0.0000;0.0000;0.0000;90.1593;-11.6895;123.6346;35.2100 
622.512;0.2690;0.9575;-0.0122;0.0000;0.0000;0.0000;90.1593;-11.7004;123.6841;35.2100 
622.512;0.2690;0.9575;-0.0122;0.0000;0.0000;0.0000;90.1648;-11.7114;123.7280;35.2100 
622.512;0.2690;0.9580;-0.0122;0.0000;0.0000;0.0000;90.1703;-11.7224;123.7720;35.2600 
622.512;0.2690;0.9580;-0.0122;0.0000;0.0000;0.0000;90.1703;-11.7334;123.8159;35.2600 
622.512;0.2690;0.9580;-0.0122;0.0000;0.0000;0.0000;90.1758;-11.7499;123.8599;35.2400 
622.512;0.2690;0.9580;-0.0122;0.0000;0.0000;0.0000;90.1758;-11.7609;123.9038;35.2400 
622.512;0.2690;0.9580;-0.0122;0.0000;0.0000;0.0000;90.1813;-11.7719;123.9478;35.2400 
622.512;0.2690;0.9580;-0.0122;0.0000;0.0000;0.0000;90.1813;-11.7828;123.9917;35.2200 
622.522;0.2690;0.9580;-0.0122;0.0000;0.0000;0.0000;90.1868;-11.7938;124.0302;35.2200 
622.522;0.2690;0.9580;-0.0122;0.0000;0.0000;0.0000;90.1923;-11.8048;124.0741;35.2100 
622.522;0.2686;0.9580;-0.0117;0.0000;0.0000;0.0000;90.1923;-11.8158;124.1180;35.2100 
622.522;0.2686;0.9580;-0.0117;0.0000;0.0000;0.0000;90.1978;-11.8268;124.1620;35.2100 
622.542;0.2686;0.9580;-0.0117;0.0000;0.0000;0.0000;90.1978;-11.8378;124.2059;35.2100 
622.542;0.2686;0.9580;-0.0117;0.0000;0.0000;0.0000;90.2032;-11.8488;124.2499;35.2300 
622.542;0.2686;0.9580;-0.0117;0.0000;0.0000;0.0000;90.2032;-11.8597;124.2938;35.2300 
622.542;0.2686;0.9580;-0.0117;0.0000;0.0000;0.0000;90.2087;-11.8707;124.3378;35.3800 
622.542;0.2686;0.9580;-0.0117;0.0000;0.0000;0.0000;90.2087;-11.8817;124.3762;35.3800 
622.542;0.2686;0.9580;-0.0117;0.0000;0.0000;0.0000;90.2142;-11.8927;124.4202;35.2300 
622.542;0.2686;0.9580;-0.0112;0.0000;0.0000;0.0000;90.2142;-11.9037;124.4586;35.2300 
622.542;0.2686;0.9580;-0.0112;0.0000;0.0000;0.0000;90.2197;-11.9147;124.4971;35.2900 
622.572;0.2686;0.9580;-0.0112;0.0000;0.0000;0.0000;90.2197;-11.9257;124.5410;35.2900 
622.572;0.2686;0.9580;-0.0112;0.0000;0.0000;0.0000;90.2252;-11.9366;124.5795;35.2500 
622.572;0.2686;0.9580;-0.0112;0.0000;0.0000;0.0000;90.2252;-11.9476;124.6179;35.2500 
622.592;0.2686;0.9580;-0.0112;0.0000;0.0000;0.0000;90.2307;-11.9586;124.6564;35.2500 
622.592;0.2686;0.9580;-0.0112;0.0000;0.0000;0.0000;90.2307;-11.9696;124.7003;35.2100 
622.592;0.2686;0.9580;-0.0112;0.0000;0.0000;0.0000;90.2362;-11.9806;124.7388;35.2100 
622.592;0.2686;0.9575;-0.0112;0.0000;0.0000;0.0000;90.2362;-11.9916;124.7772;35.1500 
622.592;0.2686;0.9575;-0.0112;0.0000;0.0000;0.0000;90.2417;-12.0026;124.8157;35.1500 
622.592;0.2686;0.9575;-0.0112;0.0000;0.0000;0.0000;90.2417;-12.0135;124.8541;35.2800 
622.592;0.2686;0.9575;-0.0112;0.0000;0.0000;0.0000;90.2417;-12.0245;124.8926;35.2800 
622.592;0.2686;0.9575;-0.0112;0.0000;0.0000;0.0000;90.2472;-12.0355;124.9310;35.2000 
622.592;0.2686;0.9575;-0.0112;0.0000;0.0000;0.0000;90.2472;-12.0465;124.9750;35.2000 
622.592;0.2686;0.9575;-0.0112;0.0000;0.0000;0.0000;90.2527;-12.0575;125.0134;35.2600 
622.592;0.2686;0.9575;-0.0112;0.0000;0.0000;0.0000;90.2527;-12.0685;125.0519;35.2600 
622.592;0.2686;0.9575;-0.0112;0.0000;0.0000;0.0000;90.2582;-12.0795;125.0903;35.2200 
622.592;0.2686;0.9575;-0.0112;0.0000;0.0000;0.0000;90.2582;-12.0905;125.1343;35.2200 
622.592;0.2686;0.9575;-0.0112;0.0000;0.0000;0.0000;90.2637;-12.0959;125.1782;35.2600 
622.592;0.2686;0.9575;-0.0112;0.0000;0.0000;0.0000;90.2637;-12.1069;125.2167;35.2600 
622.592;0.2686;0.9575;-0.0112;0.0000;0.0000;0.0000;90.2692;-12.1179;125.2606;35.2200 
622.612;0.2686;0.9575;-0.0112;0.0000;0.0000;0.0000;90.2692;-12.1289;125.2991;35.2200 
622.612;0.2686;0.9575;-0.0112;0.0000;0.0000;0.0000;90.2692;-12.1399;125.3375;35.2200 
622.612;0.2686;0.9575;-0.0112;0.0000;0.0000;0.0000;90.2747;-12.1509;125.3760;35.1500 
622.612;0.2686;0.9570;-0.0112;0.0000;0.0000;0.0000;90.2747;-12.1619;125.4144;35.1500 
622.612;0.2686;0.9570;-0.0112;0.0000;0.0000;0.0000;90.2802;-12.1729;125.4529;35.1700 
622.612;0.2686;0.9570;-0.0112;0.0000;0.0000;0.0000;90.2802;-12.1838;125.4913;35.1700 
622.612;0.2686;0.9570;-0.0112;0.0000;0.0000;0.0000;90.2856;-12.1893;125.5298;35.2600 
622.612;0.2686;0.9570;-0.0112;0.0000;0.0000;0.0000;90.2856;-12.2003;125.5682;35.2600 
622.702;0.2686;0.9570;-0.0112;0.0000;0.0000;0.0000;90.2856;-12.2113;125.6067;35.2700 
622.702;0.2686;0.9570;-0.0112;0.0000;0.0000;0.0000;90.2911;-12.2223;125.6451;35.2700 
622.702;0.2686;0.9570;-0.0112;0.0000;0.0000;0.0000;90.2911;-12.2333;125.6836;35.2000 
622.702;0.2686;0.9570;-0.0117;0.0000;0.0000;0.0000;90.2966;-12.2443;125.7166;35.2000 
622.702;0.2686;0.9570;-0.0117;0.0000;0.0000;0.0000;90.2966;-12.2552;125.7550;35.2400 
622.702;0.2686;0.9570;-0.0117;0.0000;0.0000;0.0000;90.3021;-12.2607;125.7935;35.2400 
622.702;0.2686;0.9570;-0.0117;0.0000;0.0000;0.0000;90.3021;-12.2717;125.8319;35.1600 
622.722;0.2686;0.9570;-0.0117;0.0000;0.0000;0.0000;90.3021;-12.2827;125.8649;35.1600 
622.722;0.2686;0.9570;-0.0117;0.0000;0.0000;0.0000;90.3076;-12.2937;125.9033;35.1600 
622.722;0.2686;0.9570;-0.0117;0.0000;0.0000;0.0000;90.3076;-12.3047;125.9363;35.2100 
622.722;0.2686;0.9570;-0.0117;0.0000;0.0000;0.0000;90.3131;-12.3157;125.9692;35.2100 
622.722;0.2686;0.9570;-0.0117;0.0000;0.0000;0.0000;90.3131;-12.3212;126.0077;35.2100 
622.722;0.2686;0.9570;-0.0117;0.0000;0.0000;0.0000;90.3131;-12.3322;126.0406;35.2100 
622.722;0.2686;0.9570;-0.0117;0.0000;0.0000;0.0000;90.3186;-12.3431;126.0791;35.2500 
622.722;0.2686;0.9570;-0.0117;0.0000;0.0000;0.0000;90.3186;-12.3541;126.1121;35.2500 
622.722;0.2686;0.9570;-0.0117;0.0000;0.0000;0.0000;90.3241;-12.3596;126.1505;35.2100 
622.722;0.2686;0.9570;-0.0117;0.0000;0.0000;0.0000;90.3241;-12.3706;126.1835;35.2100 
622.722;0.2686;0.9570;-0.0117;0.0000;0.0000;0.0000;90.3241;-12.3816;126.2219;35.2300 
622.722;0.2686;0.9570;-0.0117;0.0000;0.0000;0.0000;90.3296;-12.3926;126.2604;35.2300 
622.722;0.2686;0.9575;-0.0122;0.0000;0.0000;0.0000;90.3296;-12.4036;126.2988;35.1700 
622.722;0.2686;0.9575;-0.0122;0.0000;0.0000;0.0000;90.3351;-12.4091;126.3373;35.1700 
622.722;0.2686;0.9575;-0.0122;0.0000;0.0000;0.0000;90.3351;-12.4200;126.3702;35.2000 
622.722;0.2686;0.9575;-0.0122;0.0000;0.0000;0.0000;90.3351;-12.4310;126.4087;35.2000 
622.722;0.2686;0.9575;-0.0122;0.0000;0.0000;0.0000;90.3406;-12.4420;126.4471;35.2300 
622.722;0.2686;0.9575;-0.0122;0.0000;0.0000;0.0000;90.3406;-12.4475;126.4856;35.2300 
622.722;0.2686;0.9575;-0.0122;0.0000;0.0000;0.0000;90.3461;-12.4585;126.5186;35.2300 
622.722;0.2686;0.9575;-0.0122;0.0000;0.0000;0.0000;90.3461;-12.4695;126.5570;35.2600 
622.722;0.2686;0.9575;-0.0122;0.0000;0.0000;0.0000;90.3461;-12.4750;126.5955;35.2600 
622.722;0.2686;0.9575;-0.0122;0.0000;0.0000;0.0000;90.3516;-12.4860;126.6284;35.2300 
622.722;0.2686;0.9575;-0.0122;0.0000;0.0000;0.0000;90.3516;-12.4969;126.6669;35.2300 
622.722;0.2686;0.9575;-0.0122;0.0000;0.0000;0.0000;90.3571;-12.5079;126.6998;35.2000 
622.722;0.2686;0.9575;-0.0122;0.0000;0.0000;0.0000;90.3571;-12.5134;126.7383;35.2000 
622.722;0.2686;0.9575;-0.0122;0.0000;0.0000;0.0000;90.3571;-12.5244;126.7712;35.2800 
622.722;0.2686;0.9575;-0.0122;0.0000;0.0000;0.0000;90.3625;-12.5354;126.8097;35.2800 
622.722;0.2686;0.9575;-0.0122;0.0000;0.0000;0.0000;90.3625;-12.5409;126.8481;35.2700 
622.722;0.2681;0.9580;-0.0122;0.0000;0.0000;0.0000;90.3625;-12.5519;126.8866;35.2700 
622.722;0.2681;0.9580;-0.0122;0.0000;0.0000;0.0000;90.3680;-12.5629;126.9196;35.2300 
622.722;0.2681;0.9580;-0.0122;0.0000;0.0000;0.0000;90.3680;-12.5684;126.9580;35.2300 
622.742;0.2681;0.9580;-0.0122;0.0000;0.0000;0.0000;90.3735;-12.5793;126.9965;35.1900 
622.742;0.2681;0.9580;-0.0122;0.0000;0.0000;0.0000;90.3735;-12.5848;127.0294;35.1900 
622.742;0.2681;0.9580;-0.0122;0.0000;0.0000;0.0000;90.3735;-12.5958;127.0624;35.2200 
622.742;0.2681;0.9580;-0.0122;0.0000;0.0000;0.0000;90.3790;-12.6068;127.1008;35.2200 
622.742;0.2681;0.9580;-0.0122;0.0000;0.0000;0.0000;90.3790;-12.6123;127.1338;35.2200 
622.742;0.2681;0.9580;-0.0122;0.0000;0.0000;0.0000;90.3790;-12.6233;127.1722;35.2000 
622.742;0.2681;0.9580;-0.0122;0.0000;0.0000;0.0000;90.3845;-12.6343;127.2052;35.2000 
622.742;0.2681;0.9580;-0.0122;0.0000;0.0000;0.0000;90.3845;-12.6398;127.2382;35.2300 
622.742;0.2681;0.9580;-0.0122;0.0000;0.0000;0.0000;90.3845;-12.6508;127.2766;35.2300 
622.742;0.2681;0.9580;-0.0122;0.0000;0.0000;0.0000;90.3900;-12.6563;127.3151;35.2500 
622.742;0.2681;0.9580;-0.0122;0.0000;0.0000;0.0000;90.3900;-12.6672;127.3480;35.2500 
622.742;0.2681;0.9580;-0.0122;0.0000;0.0000;0.0000;90.3900;-12.6782;127.3810;35.2500 
622.742;0.2681;0.9580;-0.0122;0.0000;0.0000;0.0000;90.3955;-12.6837;127.4194;35.2500 
622.742;0.2681;0.9575;-0.0122;0.0000;0.0000;0.0000;90.3955;-12.6947;127.4524;35.2500 
622.742;0.2681;0.9575;-0.0122;0.0000;0.0000;0.0000;90.3955;-12.7002;127.4908;35.2500 
622.742;0.2681;0.9575;-0.0122;0.0000;0.0000;0.0000;90.4010;-12.7112;127.5238;35.2000 
622.742;0.2681;0.9575;-0.0122;0.0000;0.0000;0.0000;90.4010;-12.7167;127.5623;35.2000 
622.742;0.2681;0.9575;-0.0122;0.0000;0.0000;0.0000;90.4065;-12.7277;127.6007;35.2300 
622.742;0.2681;0.9575;-0.0122;0.0000;0.0000;0.0000;90.4065;-12.7386;127.6337;35.2300 
622.742;0.2681;0.9575;-0.0122;0.0000;0.0000;0.0000;90.4065;-12.7441;127.6721;35.2400 
622.742;0.2681;0.9575;-0.0122;0.0000;0.0000;0.0000;90.4120;-12.7551;127.7051;35.2400 
622.742;0.2681;0.9575;-0.0122;0.0000;0.0000;0.0000;90.4120;-12.7606;127.7435;35.2400 
622.742;0.2681;0.9575;-0.0122;0.0000;0.0000;0.0000;90.4120;-12.7716;127.7765;35.1500 
622.742;0.2681;0.9575;-0.0122;0.0000;0.0000;0.0000;90.4175;-12.7771;127.8094;35.1500 
622.742;0.2681;0.9575;-0.0122;0.0000;0.0000;0.0000;90.4175;-12.7881;127.8424;35.2200 
622.742;0.2681;0.9575;-0.0122;0.0000;0.0000;0.0000;90.4175;-12.7936;127.8754;35.2200 
622.742;0.2681;0.9575;-0.0122;0.0000;0.0000;0.0000;90.4175;-12.8046;127.9138;35.2500 
622.742;0.2681;0.9575;-0.0122;0.0000;0.0000;0.0000;90.4230;-12.8101;127.9468;35.2500 
622.742;0.2681;0.9575;-0.0122;0.0000;0.0000;0.0000;90.4230;-12.8210;127.9797;35.2100 
622.742;0.2681;0.9570;-0.0122;0.0000;0.0000;0.0000;90.4230;-12.8320;128.0127;35.2100 
622.752;0.2681;0.9570;-0.0122;0.0000;0.0000;0.0000;90.4285;-12.8375;128.0457;35.2100 
622.792;0.2681;0.9570;-0.0122;0.0000;0.0000;0.0000;90.4285;-12.8485;128.0786;35.2100 
622.792;0.2681;0.9570;-0.0122;0.0000;0.0000;0.0000;90.4285;-12.8540;128.1116;35.1800 
622.792;0.2681;0.9570;-0.0122;0.0000;0.0000;0.0000;90.4340;-12.8650;128.1445;35.1800 
622.792;0.2681;0.9570;-0.0122;0.0000;0.0000;0.0000;90.4340;-12.8705;128.1720;35.2100 
622.822;0.2681;0.9570;-0.0122;0.0000;0.0000;0.0000;90.4340;-12.8815;128.2050;35.2100 
622.822;0.2681;0.9570;-0.0122;0.0000;0.0000;0.0000;90.4395;-12.8870;128.2379;35.2100 
622.822;0.2681;0.9570;-0.0122;0.0000;0.0000;0.0000;90.4395;-12.8979;128.2709;35.2900 
622.822;0.2681;0.9570;-0.0122;0.0000;0.0000;0.0000;90.4395;-12.9034;128.2983;35.2900 
622.892;0.2681;0.9570;-0.0122;0.0000;0.0000;0.0000;90.4395;-12.9089;128.3313;35.2300 
622.892;0.2681;0.9570;-0.0122;0.0000;0.0000;0.0000;90.4449;-12.9199;128.3588;35.2300 
622.892;0.2681;0.9570;-0.0122;0.0000;0.0000;0.0000;90.4449;-12.9254;128.3917;35.2300 
622.912;0.2681;0.9570;-0.0122;0.0000;0.0000;0.0000;90.4449;-12.9364;128.4192;35.2300 
622.912;0.2681;0.9570;-0.0122;0.0000;0.0000;0.0000;90.4504;-12.9419;128.4521;35.1800 
622.912;0.2681;0.9570;-0.0122;0.0000;0.0000;0.0000;90.4504;-12.9529;128.4796;35.1800 
622.912;0.2681;0.9570;-0.0122;0.0000;0.0000;0.0000;90.4504;-12.9584;128.5071;35.2800 
622.912;0.2681;0.9570;-0.0122;0.0000;0.0000;0.0000;90.4504;-12.9694;128.5400;35.2800 
622.912;0.2681;0.9570;-0.0122;0.0000;0.0000;0.0000;90.4559;-12.9749;128.5730;35.2100 
622.912;0.2681;0.9570;-0.0122;0.0000;0.0000;0.0000;90.4559;-12.9858;128.6005;35.2100 
622.912;0.2681;0.9570;-0.0122;0.0000;0.0000;0.0000;90.4559;-12.9913;128.6334;35.2600 
622.912;0.2681;0.9570;-0.0122;0.0000;0.0000;0.0000;90.4614;-12.9968;128.6664;35.2600 
622.912;0.2681;0.9570;-0.0122;0.0000;0.0000;0.0000;90.4614;-13.0078;128.6938;35.2200 
622.912;0.2681;0.9570;-0.0122;0.0000;0.0000;0.0000;90.4614;-13.0133;128.7268;35.2200 
622.912;0.2681;0.9570;-0.0122;0.0000;0.0000;0.0000;90.4614;-13.0243;128.7598;35.2200 
622.912;0.2681;0.9570;-0.0122;0.0000;0.0000;0.0000;90.4669;-13.0298;128.7872;35.2600 
622.912;0.2681;0.9570;-0.0122;0.0000;0.0000;0.0000;90.4669;-13.0408;128.8202;35.2600 
622.912;0.2681;0.9570;-0.0122;0.0000;0.0000;0.0000;90.4669;-13.0463;128.8531;35.2400 
622.922;0.2681;0.9570;-0.0122;0.0000;0.0000;0.0000;90.4669;-13.0518;128.8861;35.2400 
622.922;0.2681;0.9570;-0.0122;0.0000;0.0000;0.0000;90.4724;-13.0627;128.9136;35.2000 
622.922;0.2681;0.9570;-0.0122;0.0000;0.0000;0.0000;90.4724;-13.0682;128.9465;35.2000 
622.942;0.2681;0.9570;-0.0122;0.0000;0.0000;0.0000;90.4724;-13.0792;128.9795;35.2400 
622.942;0.2681;0.9570;-0.0117;0.0000;0.0000;0.0000;90.4724;-13.0847;129.0070;35.2400 
622.942;0.2681;0.9570;-0.0117;0.0000;0.0000;0.0000;90.4779;-13.0902;129.0399;35.2400 
622.942;0.2681;0.9570;-0.0117;0.0000;0.0000;0.0000;90.4779;-13.1012;129.0729;35.2400 
622.942;0.2681;0.9570;-0.0117;0.0000;0.0000;0.0000;90.4779;-13.1067;129.1058;35.2100 
622.942;0.2681;0.9570;-0.0117;0.0000;0.0000;0.0000;90.4779;-13.1122;129.1333;35.2100 
622.952;0.2681;0.9570;-0.0117;0.0000;0.0000;0.0000;90.4834;-13.1232;129.1663;35.2300 
622.952;0.2681;0.9570;-0.0117;0.0000;0.0000;0.0000;90.4834;-13.1287;129.1992;35.2300 
622.962;0.2681;0.9570;-0.0117;0.0000;0.0000;0.0000;90.4834;-13.1342;129.2322;35.2100 
622.962;0.2676;0.9570;-0.0112;0.0000;0.0000;0.0000;90.4834;-13.1451;129.2596;35.2100 
622.962;0.2676;0.9570;-0.0112;0.0000;0.0000;0.0000;90.4889;-13.1506;129.2926;35.2100 
622.962;0.2676;0.9570;-0.0112;0.0000;0.0000;0.0000;90.4889;-13.1561;129.3201;35.1400 
622.972;0.2676;0.9570;-0.0112;0.0000;0.0000;0.0000;90.4889;-13.1671;129.3475;35.1400 
622.972;0.2676;0.9570;-0.0112;0.0000;0.0000;0.0000;90.4889;-13.1726;129.3750;35.2600 
622.972;0.2676;0.9570;-0.0112;0.0000;0.0000;0.0000;90.4889;-13.1781;129.4025;35.2600 
622.972;0.2676;0.9570;-0.0112;0.0000;0.0000;0.0000;90.4944;-13.1891;129.4299;35.2700 
622.992;0.2676;0.9570;-0.0112;0.0000;0.0000;0.0000;90.4944;-13.1946;129.4574;35.2700 
622.992;0.2676;0.9570;-0.0117;0.0000;0.0000;0.0000;90.4944;-13.2001;129.4849;35.2600 
623.002;0.2676;0.9570;-0.0117;0.0000;0.0000;0.0000;90.4944;-13.2111;129.5123;35.2600 
623.002;0.2676;0.9570;-0.0117;0.0000;0.0000;0.0000;90.4999;-13.2166;129.5398;35.1200 
623.002;0.2676;0.9570;-0.0117;0.0000;0.0000;0.0000;90.4999;-13.2220;129.5673;35.1200 
623.002;0.2676;0.9570;-0.0117;0.0000;0.0000;0.0000;90.4999;-13.2330;129.6002;35.3100 
623.022;0.2676;0.9570;-0.0117;0.0000;0.0000;0.0000;90.4999;-13.2385;129.6277;35.3100 
623.022;0.2676;0.9570;-0.0117;0.0000;0.0000;0.0000;90.4999;-13.2440;129.6552;35.2600 
623.032;0.2681;0.9575;-0.0117;0.0000;0.0000;0.0000;90.5054;-13.2495;129.6826;35.2600 
623.032;0.2681;0.9575;-0.0117;0.0000;0.0000;0.0000;90.5054;-13.2605;129.7156;35.2600 
623.042;0.2681;0.9575;-0.0117;0.0000;0.0000;0.0000;90.5054;-13.2660;129.7430;35.2600 
623.042;0.2681;0.9575;-0.0117;0.0000;0.0000;0.0000;90.5054;-13.2715;129.7705;35.2600 
623.052;0.2681;0.9575;-0.0117;0.0000;0.0000;0.0000;90.5054;-13.2825;129.8035;35.1600 
623.052;0.2681;0.9575;-0.0117;0.0000;0.0000;0.0000;90.5109;-13.2880;129.8309;35.1600 
623.162;0.2681;0.9575;-0.0117;0.0000;0.0000;0.0000;90.5109;-13.2935;129.8584;35.2300 
623.162;0.2681;0.9575;-0.0117;0.0000;0.0000;0.0000;90.5109;-13.2990;129.8859;35.2300 
623.162;0.2681;0.9575;-0.0122;0.0000;0.0000;0.0000;90.5109;-13.3099;129.9188;35.2100 
623.172;0.2681;0.9575;-0.0122;0.0000;0.0000;0.0000;90.5164;-13.3154;129.9463;35.2100 
623.172;0.2681;0.9575;-0.0122;0.0000;0.0000;0.0000;90.5164;-13.3209;129.9683;35.1300 
623.172;0.2681;0.9575;-0.0122;0.0000;0.0000;0.0000;90.5164;-13.3264;129.9957;35.1300 
623.172;0.2681;0.9575;-0.0122;0.0000;0.0000;0.0000;90.5164;-13.3374;130.0232;35.2100 
623.172;0.2681;0.9575;-0.0122;0.0000;0.0000;0.0000;90.5164;-13.3429;130.0452;35.2100 
623.172;0.2681;0.9575;-0.0122;0.0000;0.0000;0.0000;90.5219;-13.3484;130.0671;35.2000 
623.172;0.2681;0.9575;-0.0122;0.0000;0.0000;0.0000;90.5219;-13.3539;130.0891;35.2000 
623.172;0.2681;0.9575;-0.0122;0.0000;0.0000;0.0000;90.5219;-13.3649;130.1166;35.2100 
623.172;0.2681;0.9575;-0.0122;0.0000;0.0000;0.0000;90.5219;-13.3704;130.1385;35.2100 
623.172;0.2681;0.9575;-0.0122;0.0000;0.0000;0.0000;90.5219;-13.3759;130.1605;35.1800 
623.182;0.2681;0.9575;-0.0122;0.0000;0.0000;0.0000;90.5219;-13.3813;130.1825;35.1800 
623.182;0.2681;0.9575;-0.0122;0.0000;0.0000;0.0000;90.5273;-13.3923;130.2100;35.1800 
623.292;0.2681;0.9575;-0.0122;0.0000;0.0000;0.0000;90.5273;-13.3978;130.2319;35.2100 
623.292;0.2681;0.9575;-0.0122;0.0000;0.0000;0.0000;90.5273;-13.4033;130.2539;35.2100 
623.312;0.2681;0.9575;-0.0122;0.0000;0.0000;0.0000;90.5273;-13.4088;130.2814;35.2100 
623.312;0.2686;0.9575;-0.0122;0.0000;0.0000;0.0000;90.5273;-13.4143;130.3033;35.2100 
623.312;0.2686;0.9575;-0.0122;0.0000;0.0000;0.0000;90.5328;-13.4253;130.3253;35.2100 
623.312;0.2686;0.9575;-0.0122;0.0000;0.0000;0.0000;90.5328;-13.4308;130.3528;35.2100 
623.331;0.2686;0.9575;-0.0122;0.0000;0.0000;0.0000;90.5328;-13.4363;130.3748;35.2100 
623.331;0.2686;0.9575;-0.0122;0.0000;0.0000;0.0000;90.5328;-13.4418;130.3967;35.2100 
623.371;0.2686;0.9575;-0.0122;0.0000;0.0000;0.0000;90.5328;-13.4473;130.4242;35.1800 
623.371;0.2686;0.9575;-0.0122;0.0000;0.0000;0.0000;90.5383;-13.4583;130.4462;35.1800 
623.391;0.2686;0.9575;-0.0122;0.0000;0.0000;0.0000;90.5383;-13.4637;130.4736;35.1900 
623.391;0.2681;0.9580;-0.0122;0.0000;0.0000;0.0000;90.5383;-13.4692;130.4956;35.1900 
623.402;0.2681;0.9580;-0.0122;0.0000;0.0000;0.0000;90.5383;-13.4747;130.5176;35.2400 
623.402;0.2681;0.9580;-0.0122;0.0000;0.0000;0.0000;90.5383;-13.4802;130.5396;35.2400 
623.431;0.2681;0.9580;-0.0122;0.0000;0.0000;0.0000;90.5438;-13.4912;130.5670;35.2400 
623.431;0.2681;0.9580;-0.0122;0.0000;0.0000;0.0000;90.5438;-13.4967;130.5890;35.1700 
623.441;0.2681;0.9580;-0.0122;0.0000;0.0000;0.0000;90.5438;-13.5022;130.6110;35.1700 
623.441;0.2681;0.9580;-0.0122;0.0000;0.0000;0.0000;90.5438;-13.5077;130.6384;35.2200 
623.541;0.2681;0.9580;-0.0122;0.0000;0.0000;0.0000;90.5438;-13.5132;130.6604;35.2200 
623.561;0.2681;0.9580;-0.0117;0.0000;0.0000;0.0000;90.5438;-13.5187;130.6879;35.1800 
623.561;0.2681;0.9580;-0.0117;0.0000;0.0000;0.0000;90.5493;-13.5242;130.7098;35.1800 
623.561;0.2681;0.9580;-0.0117;0.0000;0.0000;0.0000;90.5493;-13.5352;130.7373;35.1700 
623.561;0.2681;0.9580;-0.0117;0.0000;0.0000;0.0000;90.5493;-13.5406;130.7593;35.1700 
623.561;0.2681;0.9580;-0.0117;0.0000;0.0000;0.0000;90.5493;-13.5461;130.7867;35.2100 
623.561;0.2681;0.9580;-0.0117;0.0000;0.0000;0.0000;90.5493;-13.5516;130.8142;35.2100 
623.601;0.2681;0.9580;-0.0117;0.0000;0.0000;0.0000;90.5493;-13.5571;130.8417;35.2300 
623.601;0.2681;0.9580;-0.0117;0.0000;0.0000;0.0000;90.5548;-13.5626;130.8636;35.2300 
623.601;0.2681;0.9580;-0.0117;0.0000;0.0000;0.0000;90.5548;-13.5681;130.8911;35.2700 
623.601;0.2681;0.9580;-0.0117;0.0000;0.0000;0.0000;90.5548;-13.5736;130.9186;35.2700 
623.631;0.2681;0.9580;-0.0117;0.0000;0.0000;0.0000;90.5548;-13.5846;130.9406;35.2300 
623.631;0.2681;0.9580;-0.0117;0.0000;0.0000;0.0000;90.5548;-13.5901;130.9680;35.2300 
623.631;0.2681;0.9580;-0.0117;0.0000;0.0000;0.0000;90.5548;-13.5956;130.9900;35.2300 
623.631;0.2681;0.9580;-0.0117;0.0000;0.0000;0.0000;90.5548;-13.6011;131.0120;35.2100 
623.741;0.2681;0.9580;-0.0117;0.0000;0.0000;0.0000;90.5603;-13.6066;131.0394;35.2100 
623.741;0.2681;0.9580;-0.0117;0.0000;0.0000;0.0000;90.5603;-13.6121;131.0614;35.1900 
623.741;0.2681;0.9575;-0.0112;0.0000;0.0000;0.0000;90.5603;-13.6176;131.0889;35.1900 
623.741;0.2681;0.9575;-0.0112;0.0000;0.0000;0.0000;90.5603;-13.6230;131.1108;35.2100 
623.751;0.2681;0.9575;-0.0112;0.0000;0.0000;0.0000;90.5603;-13.6285;131.1328;35.2100 
623.751;0.2681;0.9575;-0.0112;0.0000;0.0000;0.0000;90.5603;-13.6340;131.1548;35.2400 
623.751;0.2681;0.9575;-0.0112;0.0000;0.0000;0.0000;90.5603;-13.6450;131.1768;35.2400 
623.751;0.2681;0.9575;-0.0112;0.0000;0.0000;0.0000;90.5658;-13.6505;131.1987;35.2500 
623.761;0.2681;0.9575;-0.0112;0.0000;0.0000;0.0000;90.5658;-13.6560;131.2207;35.2500 
623.761;0.2681;0.9575;-0.0112;0.0000;0.0000;0.0000;90.5658;-13.6615;131.2427;35.2100 
623.761;0.2681;0.9575;-0.0112;0.0000;0.0000;0.0000;90.5658;-13.6670;131.2646;35.2100 
623.761;0.2681;0.9575;-0.0112;0.0000;0.0000;0.0000;90.5658;-13.6725;131.2811;35.1600 
623.771;0.2681;0.9575;-0.0112;0.0000;0.0000;0.0000;90.5658;-13.6780;131.3031;35.1600 
623.771;0.2681;0.9575;-0.0112;0.0000;0.0000;0.0000;90.5658;-13.6835;131.3251;35.2500 
623.771;0.2681;0.9575;-0.0112;0.0000;0.0000;0.0000;90.5658;-13.6890;131.3470;35.2500 
623.791;0.2681;0.9575;-0.0112;0.0000;0.0000;0.0000;90.5713;-13.6945;131.3690;35.2500 
623.791;0.2681;0.9575;-0.0112;0.0000;0.0000;0.0000;90.5713;-13.7000;131.3965;35.2000 
623.791;0.2681;0.9575;-0.0112;0.0000;0.0000;0.0000;90.5713;-13.7054;131.4185;35.2000 
623.791;0.2681;0.9575;-0.0112;0.0000;0.0000;0.0000;90.5713;-13.7109;131.4404;35.1800 
623.851;0.2681;0.9575;-0.0112;0.0000;0.0000;0.0000;90.5713;-13.7164;131.4624;35.1800 
623.851;0.2681;0.9575;-0.0112;0.0000;0.0000;0.0000;90.5713;-13.7219;131.4844;35.2000 
623.851;0.2681;0.9575;-0.0112;0.0000;0.0000;0.0000;90.5713;-13.7274;131.5063;35.2000 
623.851;0.2681;0.9575;-0.0112;0.0000;0.0000;0.0000;90.5713;-13.7329;131.5283;35.2400 
623.931;0.2681;0.9575;-0.0112;0.0000;0.0000;0.0000;90.5713;-13.7439;131.5503;35.2400 
623.931;0.2681;0.9575;-0.0112;0.0000;0.0000;0.0000;90.5768;-13.7494;131.5723;35.2000 
623.931;0.2681;0.9575;-0.0112;0.0000;0.0000;0.0000;90.5768;-13.7549;131.5942;35.2000 
623.931;0.2681;0.9570;-0.0112;0.0000;0.0000;0.0000;90.5768;-13.7604;131.6162;35.2600 
623.941;0.2681;0.9570;-0.0112;0.0000;0.0000;0.0000;90.5768;-13.7659;131.6382;35.2600 
623.941;0.2681;0.9570;-0.0112;0.0000;0.0000;0.0000;90.5768;-13.7714;131.6602;35.2600 
623.941;0.2681;0.9570;-0.0112;0.0000;0.0000;0.0000;90.5768;-13.7769;131.6766;35.2600 
623.941;0.2681;0.9570;-0.0112;0.0000;0.0000;0.0000;90.5768;-13.7823;131.6986;35.1800 
623.941;0.2681;0.9570;-0.0112;0.0000;0.0000;0.0000;90.5768;-13.7878;131.7206;35.1800 
623.941;0.2681;0.9570;-0.0112;0.0000;0.0000;0.0000;90.5768;-13.7933;131.7371;35.1800 
623.941;0.2681;0.9570;-0.0112;0.0000;0.0000;0.0000;90.5823;-13.7988;131.7590;35.2100 
623.941;0.2686;0.9570;-0.0117;0.0000;0.0000;0.0000;90.5823;-13.8043;131.7755;35.2100 
623.941;0.2686;0.9570;-0.0117;0.0000;0.0000;0.0000;90.5823;-13.8098;131.7975;35.2500 
623.941;0.2686;0.9570;-0.0117;0.0000;0.0000;0.0000;90.5823;-13.8153;131.8195;35.2500 
623.941;0.2686;0.9570;-0.0117;0.0000;0.0000;0.0000;90.5823;-13.8208;131.8359;35.2600 
623.941;0.2686;0.9570;-0.0117;0.0000;0.0000;0.0000;90.5823;-13.8263;131.8579;35.2600 
623.941;0.2686;0.9570;-0.0117;0.0000;0.0000;0.0000;90.5823;-13.8318;131.8799;35.2500 
623.941;0.2686;0.9570;-0.0117;0.0000;0.0000;0.0000;90.5823;-13.8373;131.8964;35.2500 
623.941;0.2686;0.9570;-0.0117;0.0000;0.0000;0.0000;90.5878;-13.8428;131.9183;35.2500 
623.951;0.2686;0.9570;-0.0122;0.0000;0.0000;0.0000;90.5878;-13.8483;131.9403;35.2500 
623.961;0.2686;0.9570;-0.0122;0.0000;0.0000;0.0000;90.5878;-13.8538;131.9568;35.2400 
623.961;0.2686;0.9570;-0.0122;0.0000;0.0000;0.0000;90.5878;-13.8593;131.9788;35.2400 
623.961;0.2686;0.9570;-0.0122;0.0000;0.0000;0.0000;90.5878;-13.8647;132.0007;35.2300 
623.981;0.2686;0.9570;-0.0122;0.0000;0.0000;0.0000;90.5878;-13.8702;132.0227;35.2300 
623.981;0.2686;0.9570;-0.0122;0.0000;0.0000;0.0000;90.5878;-13.8757;132.0392;35.2300 
623.981;0.2686;0.9570;-0.0122;0.0000;0.0000;0.0000;90.5878;-13.8812;132.0612;35.2100 
623.981;0.2686;0.9570;-0.0122;0.0000;0.0000;0.0000;90.5933;-13.8867;132.0831;35.2100 
623.991;0.2686;0.9570;-0.0122;0.0000;0.0000;0.0000;90.5933;-13.8922;132.1051;35.2300 
623.991;0.2686;0.9570;-0.0122;0.0000;0.0000;0.0000;90.5933;-13.8977;132.1271;35.2300 
623.991;0.2686;0.9570;-0.0122;0.0000;0.0000;0.0000;90.5933;-13.9032;132.1436;35.3000 
623.991;0.2686;0.9570;-0.0122;0.0000;0.0000;0.0000;90.5933;-13.9032;132.1655;35.3000 
623.991;0.2686;0.9570;-0.0122;0.0000;0.0000;0.0000;90.5933;-13.9087;132.1820;35.2100 
623.991;0.2686;0.9570;-0.0122;0.0000;0.0000;0.0000;90.5933;-13.9142;132.2040;35.2100 
623.991;0.2686;0.9570;-0.0122;0.0000;0.0000;0.0000;90.5933;-13.9197;132.2205;35.2500 
623.991;0.2686;0.9570;-0.0122;0.0000;0.0000;0.0000;90.5988;-13.9252;132.2369;35.2500 
624.001;0.2686;0.9570;-0.0122;0.0000;0.0000;0.0000;90.5988;-13.9307;132.2589;35.2100 
624.001;0.2686;0.9570;-0.0122;0.0000;0.0000;0.0000;90.5988;-13.9362;132.2754;35.2100 
624.001;0.2686;0.9570;-0.0122;0.0000;0.0000;0.0000;90.5988;-13.9417;132.2974;35.2600 
624.001;0.2686;0.9570;-0.0122;0.0000;0.0000;0.0000;90.5988;-13.9471;132.3138;35.2600 
624.011;0.2686;0.9570;-0.0122;0.0000;0.0000;0.0000;90.5988;-13.9526;132.3358;35.2600 
624.011;0.2686;0.9570;-0.0122;0.0000;0.0000;0.0000;90.5988;-13.9581;132.3578;35.2600 
