Time;ax;ay;az;wx;wy;wz;AngleX;AngleY;AngleZ;T 
1279.638;0.0034;0.0103;0.9922;0.0000;0.0000;0.0000;0.6482;-0.2527;-53.4320;34.8100 
1279.638;0.0034;0.0103;0.9922;0.0000;0.0000;0.0000;0.6482;-0.2527;-53.4320;34.8100 
1279.638;0.0034;0.0103;0.9922;0.0000;0.0000;0.0000;0.6482;-0.2527;-53.4265;34.8100 
1279.638;0.0034;0.0103;0.9922;0.0000;0.0000;0.0000;0.6427;-0.2527;-53.4265;34.8700 
1279.638;0.0034;0.0103;0.9922;0.0000;0.0000;0.0000;0.6427;-0.2527;-53.4265;34.8700 
1279.638;0.0034;0.0103;0.9922;0.0000;0.0000;0.0000;0.6427;-0.2527;-53.4210;34.8300 
1279.638;0.0039;0.0117;0.9932;0.0000;0.0000;0.0000;0.6427;-0.2527;-53.4210;34.8300 
1279.638;0.0039;0.0117;0.9932;0.0000;0.0000;0.0000;0.6427;-0.2527;-53.4155;34.8000 
1279.648;0.0039;0.0117;0.9932;0.0000;0.0000;0.0000;0.6427;-0.2527;-53.4155;34.8000 
1279.648;0.0039;0.0117;0.9932;0.0000;0.0000;0.0000;0.6482;-0.2527;-53.4100;34.8000 
1279.668;0.0039;0.0117;0.9932;0.0000;0.0000;0.0000;0.6482;-0.2527;-53.4100;34.8000 
1279.668;0.0039;0.0117;0.9932;0.0000;0.0000;0.0000;0.6482;-0.2527;-53.4045;34.8000 
1279.668;0.0039;0.0117;0.9932;0.0000;0.0000;0.0000;0.6482;-0.2527;-53.4045;34.8000 
1279.668;0.0039;0.0117;0.9932;0.0000;0.0000;0.0000;0.6482;-0.2527;-53.4045;34.7800 
1279.678;0.0039;0.0117;0.9932;0.0000;0.0000;0.0000;0.6482;-0.2527;-53.3990;34.7800 
1279.678;0.0039;0.0117;0.9932;0.0000;0.0000;0.0000;0.6482;-0.2527;-53.3990;34.8300 
1279.688;0.0039;0.0117;0.9932;0.0000;0.0000;0.0000;0.6482;-0.2527;-53.3936;34.8300 
1279.688;0.0039;0.0117;0.9932;0.0000;0.0000;0.0000;0.6482;-0.2527;-53.3936;34.8500 
1279.778;0.0039;0.0117;0.9932;0.0000;0.0000;0.0000;0.6482;-0.2527;-53.3936;34.8500 
1279.778;0.0039;0.0117;0.9932;0.0000;0.0000;0.0000;0.6482;-0.2527;-53.3881;34.8500 
1279.778;0.0039;0.0117;0.9932;0.0000;0.0000;0.0000;0.6482;-0.2527;-53.3881;34.8200 
1279.788;0.0039;0.0117;0.9932;0.0000;0.0000;0.0000;0.6482;-0.2527;-53.3881;34.8200 
1279.788;0.0044;0.0107;0.9937;0.0000;0.0000;0.0000;0.6482;-0.2527;-53.3826;34.8200 
1279.788;0.0044;0.0107;0.9937;0.0000;0.0000;0.0000;0.6482;-0.2527;-53.3826;34.8200 
1279.788;0.0044;0.0107;0.9937;0.0000;0.0000;0.0000;0.6482;-0.2527;-53.3826;34.8100 
1279.788;0.0044;0.0107;0.9937;0.0000;0.0000;0.0000;0.6482;-0.2527;-53.3826;34.8100 
1279.788;0.0044;0.0107;0.9937;0.0000;0.0000;0.0000;0.6482;-0.2527;-53.3826;34.8000 
1279.788;0.0044;0.0107;0.9937;0.0000;0.0000;0.0000;0.6482;-0.2527;-53.3826;34.8000 
1279.788;0.0044;0.0107;0.9937;0.0000;0.0000;0.0000;0.6482;-0.2527;-53.3826;34.9000 
1279.788;0.0044;0.0107;0.9937;0.0000;0.0000;0.0000;0.6482;-0.2527;-53.3826;34.9000 
1279.788;0.0049;0.0127;0.9937;0.0000;0.0000;0.0000;0.6482;-0.2527;-53.3771;34.8400 
1279.788;0.0049;0.0127;0.9937;0.0000;0.0000;0.0000;0.6482;-0.2527;-53.3771;34.8400 
1279.788;0.0049;0.0127;0.9937;0.0000;0.0000;0.0000;0.6482;-0.2527;-53.3771;34.8500 
1279.788;0.0049;0.0127;0.9937;0.0000;0.0000;0.0000;0.6482;-0.2527;-53.3716;34.8500 
1279.788;0.0049;0.0127;0.9937;0.0000;0.0000;0.0000;0.6482;-0.2527;-53.3716;34.8500 
1279.788;0.0049;0.0127;0.9937;0.0000;0.0000;0.0000;0.6482;-0.2527;-53.3661;34.7800 
1279.788;0.0049;0.0127;0.9937;0.0000;0.0000;0.0000;0.6482;-0.2527;-53.3661;34.7800 
1279.788;0.0049;0.0127;0.9937;0.0000;0.0000;0.0000;0.6482;-0.2527;-53.3661;34.7800 
1279.788;0.0049;0.0132;0.9932;0.0000;0.0000;0.0000;0.6482;-0.2527;-53.3661;34.7800 
1279.798;0.0049;0.0132;0.9932;0.0000;0.0000;0.0000;0.6482;-0.2527;-53.3661;34.8500 
1279.798;0.0049;0.0132;0.9932;0.0000;0.0000;0.0000;0.6482;-0.2527;-53.3606;34.8500 
1279.808;0.0049;0.0132;0.9932;0.0000;0.0000;0.0000;0.6482;-0.2527;-53.3606;34.8600 
1279.808;0.0049;0.0132;0.9932;0.0000;0.0000;0.0000;0.6482;-0.2527;-53.3606;34.8600 
1279.818;0.0049;0.0132;0.9932;0.0000;0.0000;0.0000;0.6482;-0.2527;-53.3606;34.8300 
1279.818;0.0049;0.0132;0.9932;0.0000;0.0000;0.0000;0.6482;-0.2527;-53.3606;34.8300 
1279.917;0.0049;0.0132;0.9932;0.0000;0.0000;0.0000;0.6537;-0.2527;-53.3606;34.8000 
1279.917;0.0049;0.0122;0.9932;0.0000;0.0000;0.0000;0.6537;-0.2527;-53.3606;34.8000 
1279.937;0.0049;0.0122;0.9932;0.0000;0.0000;0.0000;0.6537;-0.2527;-53.3661;34.8200 
1279.937;0.0049;0.0122;0.9932;0.0000;0.0000;0.0000;0.6537;-0.2527;-53.3661;34.8200 
1279.937;0.0049;0.0122;0.9932;0.0000;0.0000;0.0000;0.6537;-0.2527;-53.3661;34.8400 
1279.937;0.0049;0.0122;0.9932;0.0000;0.0000;0.0000;0.6537;-0.2527;-53.3661;34.8400 
1279.937;0.0049;0.0122;0.9932;0.0000;0.0000;0.0000;0.6537;-0.2527;-53.3661;34.8400 
1279.937;0.0049;0.0122;0.9932;0.0000;0.0000;0.0000;0.6537;-0.2527;-53.3661;34.7700 
1279.937;0.0049;0.0122;0.9932;0.0000;0.0000;0.0000;0.6537;-0.2527;-53.3661;34.7700 
1279.937;0.0049;0.0122;0.9927;0.0000;0.0000;0.0000;0.6537;-0.2527;-53.3661;34.8000 
1279.937;0.0049;0.0122;0.9927;0.0000;0.0000;0.0000;0.6537;-0.2527;-53.3661;34.8000 
1279.937;0.0049;0.0122;0.9927;0.0000;0.0000;0.0000;0.6537;-0.2527;-53.3661;34.8100 
1279.937;0.0049;0.0122;0.9927;0.0000;0.0000;0.0000;0.6537;-0.2527;-53.3661;34.8100 
1279.937;0.0049;0.0122;0.9927;0.0000;0.0000;0.0000;0.6537;-0.2527;-53.3661;34.8100 
1279.937;0.0049;0.0122;0.9927;0.0000;0.0000;0.0000;0.6537;-0.2527;-53.3661;34.8100 
1279.937;0.0049;0.0122;0.9927;0.0000;0.0000;0.0000;0.6537;-0.2527;-53.3661;34.8200 
1279.937;0.0049;0.0122;0.9927;0.0000;0.0000;0.0000;0.6537;-0.2527;-53.3661;34.8200 
1279.937;0.0044;0.0127;0.9927;0.0000;0.0000;0.0000;0.6537;-0.2527;-53.3661;34.8000 
1279.937;0.0044;0.0127;0.9927;0.0000;0.0000;0.0000;0.6537;-0.2527;-53.3661;34.8000 
1279.937;0.0044;0.0127;0.9927;0.0000;0.0000;0.0000;0.6537;-0.2527;-53.3661;34.8100 
1279.937;0.0044;0.0127;0.9927;0.0000;0.0000;0.0000;0.6537;-0.2527;-53.3661;34.8100 
1279.937;0.0044;0.0127;0.9927;0.0000;0.0000;0.0000;0.6537;-0.2527;-53.3716;34.7800 
1279.937;0.0044;0.0127;0.9927;0.0000;0.0000;0.0000;0.6537;-0.2527;-53.3716;34.7800 
1279.957;0.0044;0.0127;0.9927;0.0000;0.0000;0.0000;0.6537;-0.2527;-53.3716;34.7800 
1279.957;0.0044;0.0127;0.9927;0.0000;0.0000;0.0000;0.6537;-0.2527;-53.3716;34.8500 
1279.967;0.0044;0.0112;0.9922;0.0000;0.0000;0.0000;0.6537;-0.2527;-53.3716;34.8500 
1279.967;0.0044;0.0112;0.9922;0.0000;0.0000;0.0000;0.6537;-0.2527;-53.3716;34.8900 
1279.967;0.0044;0.0112;0.9922;0.0000;0.0000;0.0000;0.6537;-0.2527;-53.3716;34.8900 
1279.967;0.0044;0.0112;0.9922;0.0000;0.0000;0.0000;0.6537;-0.2527;-53.3771;34.8100 
1279.977;0.0044;0.0112;0.9922;0.0000;0.0000;0.0000;0.6537;-0.2527;-53.3771;34.8100 
1279.977;0.0044;0.0112;0.9922;0.0000;0.0000;0.0000;0.6537;-0.2527;-53.3771;34.8400 
1279.987;0.0044;0.0112;0.9922;0.0000;0.0000;0.0000;0.6537;-0.2527;-53.3771;34.8400 
1279.987;0.0044;0.0112;0.9922;0.0000;0.0000;0.0000;0.6537;-0.2527;-53.3771;34.8400 
1279.997;0.0049;0.0112;0.9927;0.0000;0.0000;0.0000;0.6537;-0.2527;-53.3771;34.8400 
1279.997;0.0049;0.0112;0.9927;0.0000;0.0000;0.0000;0.6537;-0.2527;-53.3771;34.8200 
1280.007;0.0049;0.0112;0.9927;0.0000;0.0000;0.0000;0.6537;-0.2527;-53.3771;34.8200 
1280.007;0.0049;0.0112;0.9927;0.0000;0.0000;0.0000;0.6537;-0.2527;-53.3771;34.8200 
1280.017;0.0049;0.0112;0.9927;0.0000;0.0000;0.0000;0.6537;-0.2527;-53.3771;34.8200 
1280.017;0.0049;0.0112;0.9927;0.0000;0.0000;0.0000;0.6537;-0.2527;-53.3826;34.8100 
1280.037;0.0049;0.0112;0.9927;0.0000;0.0000;0.0000;0.6537;-0.2527;-53.3826;34.8100 
1280.037;0.0049;0.0112;0.9927;0.0000;0.0000;0.0000;0.6537;-0.2527;-53.3826;34.8100 
1280.037;0.0044;0.0117;0.9927;0.0000;0.0000;0.0000;0.6537;-0.2527;-53.3826;34.8300 
1280.047;0.0044;0.0117;0.9927;0.0000;0.0000;0.0000;0.6537;-0.2527;-53.3881;34.8300 
1280.047;0.0044;0.0117;0.9927;0.0000;0.0000;0.0000;0.6537;-0.2527;-53.3881;34.8300 
1280.067;0.0044;0.0117;0.9927;0.0000;0.0000;0.0000;0.6537;-0.2527;-53.3881;34.8300 
1280.067;0.0044;0.0117;0.9927;0.0000;0.0000;0.0000;0.6537;-0.2527;-53.3881;34.7700 
1280.087;0.0044;0.0117;0.9927;0.0000;0.0000;0.0000;0.6537;-0.2527;-53.3881;34.7700 
1280.087;0.0044;0.0117;0.9927;0.0000;0.0000;0.0000;0.6537;-0.2527;-53.3881;34.8200 
1280.087;0.0044;0.0117;0.9927;0.0000;0.0000;0.0000;0.6537;-0.2527;-53.3881;34.8200 
1280.087;0.0005;0.0151;0.9902;0.0000;0.0000;0.0000;0.6592;-0.2527;-53.3881;34.7900 
1280.087;0.0005;0.0151;0.9902;0.0000;0.0000;0.0000;0.6592;-0.2527;-53.3881;34.7900 
1280.087;0.0005;0.0151;0.9902;0.0000;0.0000;0.0000;0.6592;-0.2527;-53.3881;34.7900 
1280.177;0.0005;0.0151;0.9902;0.0000;0.0000;0.0000;0.6592;-0.2527;-53.3881;34.7900 
1280.177;0.0005;0.0151;0.9902;0.0000;0.0000;0.0000;0.6592;-0.2527;-53.3881;34.8400 
1280.177;0.0005;0.0151;0.9902;0.0000;0.0000;0.0000;0.6592;-0.2527;-53.3936;34.8400 
1280.177;0.0005;0.0151;0.9902;0.0000;0.0000;0.0000;0.6592;-0.2527;-53.3936;34.8400 
1280.197;0.0005;0.0151;0.9902;0.0000;0.0000;0.0000;0.6592;-0.2472;-53.3936;34.8600 
1280.197;0.0039;0.0127;0.9937;0.0000;0.0000;0.0000;0.6592;-0.2472;-53.3936;34.8600 
1280.197;0.0039;0.0127;0.9937;0.0000;0.0000;0.0000;0.6647;-0.2472;-53.3936;34.7800 
1280.197;0.0039;0.0127;0.9937;0.0000;0.0000;0.0000;0.6647;-0.2472;-53.3936;34.7800 
1280.197;0.0039;0.0127;0.9937;0.0000;0.0000;0.0000;0.6647;-0.2472;-53.3936;34.8400 
1280.197;0.0039;0.0127;0.9937;0.0000;0.0000;0.0000;0.6647;-0.2472;-53.3936;34.8400 
1280.197;0.0039;0.0127;0.9937;0.0000;0.0000;0.0000;0.6647;-0.2472;-53.3990;34.8300 
1280.197;0.0039;0.0127;0.9937;0.0000;0.0000;0.0000;0.6647;-0.2472;-53.3990;34.8300 
1280.197;0.0039;0.0127;0.9937;0.0000;0.0000;0.0000;0.6647;-0.2472;-53.3936;34.8700 
1280.197;-0.0020;0.0156;0.9888;0.0000;0.0000;0.0000;0.6647;-0.2472;-53.3936;34.8700 
1280.197;-0.0020;0.0156;0.9888;0.0000;0.0000;0.0000;0.6647;-0.2472;-53.3936;34.8300 
1280.197;-0.0020;0.0156;0.9888;0.0000;0.0000;0.0000;0.6647;-0.2472;-53.3936;34.8300 
1280.197;-0.0020;0.0156;0.9888;0.0000;0.0000;0.0000;0.6647;-0.2472;-53.3936;34.8800 
1280.197;-0.0020;0.0156;0.9888;0.0000;0.0000;0.0000;0.6647;-0.2417;-53.3936;34.8800 
1280.207;-0.0020;0.0156;0.9888;0.0000;0.0000;0.0000;0.6702;-0.2417;-53.3936;34.8000 
1280.207;-0.0020;0.0156;0.9888;0.0000;0.0000;0.0000;0.6702;-0.2417;-53.3936;34.8000 
1280.207;-0.0020;0.0156;0.9888;0.0000;0.0000;0.0000;0.6702;-0.2417;-53.3990;34.8000 
1280.207;0.0073;0.0122;0.9951;0.0000;0.0000;0.0000;0.6702;-0.2417;-53.3990;34.8600 
1280.217;0.0073;0.0122;0.9951;0.0000;0.0000;0.0000;0.6702;-0.2417;-53.3990;34.8600 
1280.217;0.0073;0.0122;0.9951;0.0000;0.0000;0.0000;0.6702;-0.2417;-53.3990;34.9000 
1280.217;0.0073;0.0122;0.9951;0.0000;0.0000;0.0000;0.6702;-0.2417;-53.3990;34.9000 
1280.217;0.0073;0.0122;0.9951;0.0000;0.0000;0.0000;0.6702;-0.2417;-53.3990;34.8700 
1280.217;0.0073;0.0122;0.9951;0.0000;0.0000;0.0000;0.6702;-0.2417;-53.4045;34.8700 
1280.227;0.0073;0.0122;0.9951;0.0000;0.0000;0.0000;0.6702;-0.2417;-53.4045;34.7500 
1280.227;0.0073;0.0122;0.9951;0.0000;0.0000;0.0000;0.6702;-0.2472;-53.4045;34.7500 
1280.237;0.0044;0.0068;0.9922;-0.2441;-0.1221;0.0000;0.6702;-0.2472;-53.4045;34.8200 
1280.237;0.0044;0.0068;0.9922;-0.2441;-0.1221;0.0000;0.6647;-0.2472;-53.4045;34.8200 
1280.247;0.0044;0.0068;0.9922;-0.2441;-0.1221;0.0000;0.6647;-0.2472;-53.4045;34.8600 
1280.247;0.0044;0.0068;0.9922;-0.2441;-0.1221;0.0000;0.6647;-0.2472;-53.4045;34.8600 
1280.257;0.0044;0.0068;0.9922;-0.2441;-0.1221;0.0000;0.6592;-0.2472;-53.4045;34.8600 
1280.257;0.0044;0.0068;0.9922;-0.2441;-0.1221;0.0000;0.6592;-0.2472;-53.4100;34.8600 
1280.267;0.0044;0.0068;0.9922;-0.2441;-0.1221;0.0000;0.6537;-0.2472;-53.4100;34.7600 
1280.267;0.0044;0.0068;0.9922;-0.2441;-0.1221;0.0000;0.6537;-0.2472;-53.4100;34.7600 
1280.287;0.0117;0.0049;0.9961;-0.3052;-0.1221;0.0000;0.6537;-0.2527;-53.4100;34.7600 
1280.287;0.0117;0.0049;0.9961;-0.3052;-0.1221;0.0000;0.6482;-0.2527;-53.4100;34.7900 
1280.287;0.0117;0.0049;0.9961;-0.3052;-0.1221;0.0000;0.6482;-0.2527;-53.4100;34.7900 
1280.287;0.0117;0.0049;0.9961;-0.3052;-0.1221;0.0000;0.6427;-0.2582;-53.4100;34.8700 
1280.377;0.0117;0.0049;0.9961;-0.3052;-0.1221;0.0000;0.6427;-0.2582;-53.4100;34.8700 
1280.377;0.0117;0.0049;0.9961;-0.3052;-0.1221;0.0000;0.6372;-0.2582;-53.4155;34.8100 
1280.387;0.0117;0.0049;0.9961;-0.3052;-0.1221;0.0000;0.6372;-0.2637;-53.4155;34.8100 
1280.387;0.0117;0.0049;0.9961;-0.3052;-0.1221;0.0000;0.6317;-0.2637;-53.4155;34.8300 
1280.387;0.0044;0.0039;0.9932;-0.2441;-0.0610;0.0000;0.6317;-0.2637;-53.4155;34.8300 
1280.387;0.0044;0.0039;0.9932;-0.2441;-0.0610;0.0000;0.6262;-0.2637;-53.4155;34.8300 
1280.387;0.0044;0.0039;0.9932;-0.2441;-0.0610;0.0000;0.6262;-0.2637;-53.4155;34.8300 
1280.387;0.0044;0.0039;0.9932;-0.2441;-0.0610;0.0000;0.6262;-0.2637;-53.4210;34.8200 
1280.387;0.0044;0.0039;0.9932;-0.2441;-0.0610;0.0000;0.6207;-0.2637;-53.4210;34.8200 
1280.387;0.0044;0.0039;0.9932;-0.2441;-0.0610;0.0000;0.6207;-0.2637;-53.4210;34.8300 
1280.387;0.0044;0.0039;0.9932;-0.2441;-0.0610;0.0000;0.6152;-0.2637;-53.4210;34.8300 
1280.387;0.0044;0.0039;0.9932;-0.2441;-0.0610;0.0000;0.6152;-0.2637;-53.4210;34.8100 
1280.387;0.0083;0.0107;0.9946;0.0000;0.0000;0.0000;0.6152;-0.2692;-53.4210;34.8100 
1280.387;0.0083;0.0107;0.9946;0.0000;0.0000;0.0000;0.6152;-0.2692;-53.4210;34.8100 
1280.387;0.0083;0.0107;0.9946;0.0000;0.0000;0.0000;0.6152;-0.2692;-53.4210;34.8700 
1280.387;0.0083;0.0107;0.9946;0.0000;0.0000;0.0000;0.6152;-0.2692;-53.4210;34.8700 
1280.387;0.0083;0.0107;0.9946;0.0000;0.0000;0.0000;0.6152;-0.2692;-53.4210;34.7700 
1280.387;0.0083;0.0107;0.9946;0.0000;0.0000;0.0000;0.6152;-0.2692;-53.4210;34.7700 
1280.387;0.0083;0.0107;0.9946;0.0000;0.0000;0.0000;0.6152;-0.2692;-53.4210;34.8200 
1280.387;0.0083;0.0107;0.9946;0.0000;0.0000;0.0000;0.6152;-0.2692;-53.4210;34.8200 
1280.387;0.0024;0.0068;0.9912;0.1221;0.0610;-0.0610;0.6152;-0.2692;-53.4265;34.8900 
1280.397;0.0024;0.0068;0.9912;0.1221;0.0610;-0.0610;0.6152;-0.2692;-53.4265;34.8900 
1280.397;0.0024;0.0068;0.9912;0.1221;0.0610;-0.0610;0.6152;-0.2692;-53.4265;34.8200 
1280.407;0.0024;0.0068;0.9912;0.1221;0.0610;-0.0610;0.6152;-0.2692;-53.4265;34.8200 
1280.407;0.0024;0.0068;0.9912;0.1221;0.0610;-0.0610;0.6152;-0.2692;-53.4265;34.8600 
1280.437;0.0024;0.0068;0.9912;0.1221;0.0610;-0.0610;0.6152;-0.2692;-53.4265;34.8600 
1280.437;0.0024;0.0068;0.9912;0.1221;0.0610;-0.0610;0.6152;-0.2637;-53.4320;34.8200 
1280.447;0.0024;0.0068;0.9912;0.1221;0.0610;-0.0610;0.6152;-0.2637;-53.4320;34.8200 
1280.447;0.0049;0.0117;0.9927;0.2441;0.0610;-0.0610;0.6152;-0.2637;-53.4320;34.8600 
1280.447;0.0049;0.0117;0.9927;0.2441;0.0610;-0.0610;0.6152;-0.2637;-53.4320;34.8600 
1280.447;0.0049;0.0117;0.9927;0.2441;0.0610;-0.0610;0.6207;-0.2637;-53.4375;34.8600 
1280.457;0.0049;0.0117;0.9927;0.2441;0.0610;-0.0610;0.6207;-0.2637;-53.4375;34.7300 
1280.457;0.0049;0.0117;0.9927;0.2441;0.0610;-0.0610;0.6207;-0.2637;-53.4430;34.7300 
1280.457;0.0049;0.0117;0.9927;0.2441;0.0610;-0.0610;0.6207;-0.2637;-53.4430;34.8500 
1280.457;0.0049;0.0117;0.9927;0.2441;0.0610;-0.0610;0.6262;-0.2637;-53.4430;34.8500 
1280.477;0.0029;0.0137;0.9907;0.3052;0.0610;-0.0610;0.6262;-0.2637;-53.4485;34.8700 
1280.477;0.0029;0.0137;0.9907;0.3052;0.0610;-0.0610;0.6262;-0.2637;-53.4485;34.8700 
1280.497;0.0029;0.0137;0.9907;0.3052;0.0610;-0.0610;0.6317;-0.2637;-53.4485;34.8600 
1280.497;0.0029;0.0137;0.9907;0.3052;0.0610;-0.0610;0.6317;-0.2637;-53.4485;34.8600 
1280.587;0.0029;0.0137;0.9907;0.3052;0.0610;-0.0610;0.6317;-0.2582;-53.4485;34.7500 
1280.587;0.0029;0.0137;0.9907;0.3052;0.0610;-0.0610;0.6372;-0.2582;-53.4485;34.7500 
1280.587;0.0029;0.0137;0.9907;0.3052;0.0610;-0.0610;0.6372;-0.2582;-53.4485;34.7800 
1280.587;0.0029;0.0137;0.9907;0.3052;0.0610;-0.0610;0.6427;-0.2582;-53.4485;34.7800 
1280.597;0.0044;0.0098;0.9927;0.2441;0.0610;0.0000;0.6427;-0.2582;-53.4430;34.8100 
1280.597;0.0044;0.0098;0.9927;0.2441;0.0610;0.0000;0.6427;-0.2582;-53.4430;34.8100 
1280.597;0.0044;0.0098;0.9927;0.2441;0.0610;0.0000;0.6427;-0.2582;-53.4430;34.8100 
1280.597;0.0044;0.0098;0.9927;0.2441;0.0610;0.0000;0.6427;-0.2582;-53.4430;34.8100 
1280.597;0.0044;0.0098;0.9927;0.2441;0.0610;0.0000;0.6427;-0.2582;-53.4430;34.8100 
1280.597;0.0044;0.0098;0.9927;0.2441;0.0610;0.0000;0.6482;-0.2582;-53.4375;34.8300 
1280.597;0.0044;0.0098;0.9927;0.2441;0.0610;0.0000;0.6482;-0.2582;-53.4375;34.8300 
1280.597;0.0044;0.0098;0.9927;0.2441;0.0610;0.0000;0.6482;-0.2582;-53.4375;34.8200 
1280.597;0.0020;0.0098;0.9912;0.1221;0.0610;0.0000;0.6482;-0.2582;-53.4375;34.8200 
1280.597;0.0020;0.0098;0.9912;0.1221;0.0610;0.0000;0.6482;-0.2527;-53.4375;34.8100 
1280.597;0.0020;0.0098;0.9912;0.1221;0.0610;0.0000;0.6482;-0.2527;-53.4375;34.8100 
1280.597;0.0020;0.0098;0.9912;0.1221;0.0610;0.0000;0.6482;-0.2527;-53.4375;34.8600 
1280.597;0.0020;0.0098;0.9912;0.1221;0.0610;0.0000;0.6482;-0.2527;-53.4375;34.8600 
1280.597;0.0020;0.0098;0.9912;0.1221;0.0610;0.0000;0.6482;-0.2527;-53.4375;34.8500 
1280.597;0.0020;0.0098;0.9912;0.1221;0.0610;0.0000;0.6482;-0.2527;-53.4430;34.8500 
1280.597;0.0020;0.0098;0.9912;0.1221;0.0610;0.0000;0.6537;-0.2527;-53.4430;34.8200 
1280.597;0.0039;0.0151;0.9917;0.1221;0.0000;0.0000;0.6537;-0.2527;-53.4430;34.8200 
1280.597;0.0039;0.0151;0.9917;0.1221;0.0000;0.0000;0.6537;-0.2527;-53.4430;34.7500 
1280.597;0.0039;0.0151;0.9917;0.1221;0.0000;0.0000;0.6537;-0.2527;-53.4430;34.7500 
1280.617;0.0039;0.0151;0.9917;0.1221;0.0000;0.0000;0.6537;-0.2527;-53.4430;34.7500 
1280.617;0.0039;0.0151;0.9917;0.1221;0.0000;0.0000;0.6592;-0.2527;-53.4485;34.8100 
1280.617;0.0039;0.0151;0.9917;0.1221;0.0000;0.0000;0.6592;-0.2527;-53.4485;34.8100 
1280.617;0.0039;0.0151;0.9917;0.1221;0.0000;0.0000;0.6592;-0.2472;-53.4485;34.8200 
1280.627;0.0039;0.0151;0.9917;0.1221;0.0000;0.0000;0.6592;-0.2472;-53.4485;34.8200 
1280.627;0.0034;0.0083;0.9927;0.0610;0.0000;0.0000;0.6592;-0.2472;-53.4485;34.8200 
1280.627;0.0034;0.0083;0.9927;0.0610;0.0000;0.0000;0.6592;-0.2472;-53.4485;34.8200 
1280.627;0.0034;0.0083;0.9927;0.0610;0.0000;0.0000;0.6592;-0.2472;-53.4485;34.8300 
1280.637;0.0034;0.0083;0.9927;0.0610;0.0000;0.0000;0.6592;-0.2472;-53.4485;34.8300 
1280.637;0.0034;0.0083;0.9927;0.0610;0.0000;0.0000;0.6592;-0.2472;-53.4485;34.8700 
1280.667;0.0034;0.0083;0.9927;0.0610;0.0000;0.0000;0.6592;-0.2472;-53.4485;34.8700 
1280.667;0.0034;0.0083;0.9927;0.0610;0.0000;0.0000;0.6592;-0.2472;-53.4540;34.8100 
1280.687;0.0034;0.0083;0.9927;0.0610;0.0000;0.0000;0.6592;-0.2472;-53.4540;34.8100 
1280.687;0.0034;0.0063;0.9932;0.0000;0.0000;0.0000;0.6592;-0.2472;-53.4540;34.8000 
1280.687;0.0034;0.0063;0.9932;0.0000;0.0000;0.0000;0.6592;-0.2472;-53.4540;34.8000 
1280.687;0.0034;0.0063;0.9932;0.0000;0.0000;0.0000;0.6592;-0.2472;-53.4540;34.8100 
1280.687;0.0034;0.0063;0.9932;0.0000;0.0000;0.0000;0.6537;-0.2472;-53.4540;34.8100 
1280.697;0.0034;0.0063;0.9932;0.0000;0.0000;0.0000;0.6537;-0.2472;-53.4540;34.8100 
1280.697;0.0034;0.0063;0.9932;0.0000;0.0000;0.0000;0.6537;-0.2472;-53.4540;34.8300 
1280.697;0.0034;0.0063;0.9932;0.0000;0.0000;0.0000;0.6537;-0.2472;-53.4540;34.8300 
1280.797;0.0034;0.0063;0.9932;0.0000;0.0000;0.0000;0.6537;-0.2472;-53.4540;34.7500 
1280.797;0.0049;0.0127;0.9927;0.0000;0.0000;0.0000;0.6537;-0.2472;-53.4540;34.7500 
1280.797;0.0049;0.0127;0.9927;0.0000;0.0000;0.0000;0.6537;-0.2472;-53.4595;34.9000 
1280.807;0.0049;0.0127;0.9927;0.0000;0.0000;0.0000;0.6537;-0.2472;-53.4595;34.9000 
1280.807;0.0049;0.0127;0.9927;0.0000;0.0000;0.0000;0.6537;-0.2472;-53.4595;34.8200 
1280.807;0.0049;0.0127;0.9927;0.0000;0.0000;0.0000;0.6537;-0.2472;-53.4595;34.8200 
1280.807;0.0049;0.0127;0.9927;0.0000;0.0000;0.0000;0.6537;-0.2472;-53.4595;34.8300 
1280.807;0.0049;0.0127;0.9927;0.0000;0.0000;0.0000;0.6537;-0.2472;-53.4595;34.8300 
1280.807;0.0049;0.0127;0.9927;0.0000;0.0000;0.0000;0.6537;-0.2472;-53.4595;34.8200 
1280.807;0.0044;0.0088;0.9927;0.0000;0.0000;0.0000;0.6537;-0.2472;-53.4650;34.8200 
1280.807;0.0044;0.0088;0.9927;0.0000;0.0000;0.0000;0.6537;-0.2472;-53.4650;34.8100 
1280.807;0.0044;0.0088;0.9927;0.0000;0.0000;0.0000;0.6537;-0.2472;-53.4650;34.8100 
1280.807;0.0044;0.0088;0.9927;0.0000;0.0000;0.0000;0.6537;-0.2472;-53.4705;34.8100 
1280.807;0.0044;0.0088;0.9927;0.0000;0.0000;0.0000;0.6537;-0.2472;-53.4705;34.8100 
1280.807;0.0044;0.0088;0.9927;0.0000;0.0000;0.0000;0.6537;-0.2472;-53.4705;34.8100 
1280.807;0.0044;0.0088;0.9927;0.0000;0.0000;0.0000;0.6537;-0.2472;-53.4705;34.8000 
1280.807;0.0044;0.0088;0.9927;0.0000;0.0000;0.0000;0.6537;-0.2472;-53.4760;34.8000 
1280.807;0.0049;0.0068;0.9937;0.0000;0.0000;0.0000;0.6482;-0.2472;-53.4760;34.8100 
1280.807;0.0049;0.0068;0.9937;0.0000;0.0000;0.0000;0.6482;-0.2472;-53.4760;34.8100 
1280.807;0.0049;0.0068;0.9937;0.0000;0.0000;0.0000;0.6482;-0.2472;-53.4760;34.8200 
1280.807;0.0049;0.0068;0.9937;0.0000;0.0000;0.0000;0.6482;-0.2472;-53.4760;34.8200 
1280.807;0.0049;0.0068;0.9937;0.0000;0.0000;0.0000;0.6482;-0.2472;-53.4760;34.8400 
1280.807;0.0049;0.0068;0.9937;0.0000;0.0000;0.0000;0.6482;-0.2472;-53.4760;34.8400 
1280.817;0.0049;0.0068;0.9937;0.0000;0.0000;0.0000;0.6482;-0.2472;-53.4760;34.7500 
1280.817;0.0049;0.0068;0.9937;0.0000;0.0000;0.0000;0.6427;-0.2472;-53.4760;34.7500 
1280.827;0.0044;0.0132;0.9922;0.0000;0.0000;0.0000;0.6482;-0.2472;-53.4760;34.8400 
1280.847;0.0044;0.0132;0.9922;0.0000;0.0000;0.0000;0.6482;-0.2472;-53.4760;34.8400 
1280.847;0.0044;0.0132;0.9922;0.0000;0.0000;0.0000;0.6482;-0.2472;-53.4705;34.8200 
1280.847;0.0044;0.0132;0.9922;0.0000;0.0000;0.0000;0.6482;-0.2472;-53.4705;34.8200 
1280.847;0.0044;0.0132;0.9922;0.0000;0.0000;0.0000;0.6482;-0.2472;-53.4705;34.8200 
1280.847;0.0044;0.0132;0.9922;0.0000;0.0000;0.0000;0.6482;-0.2472;-53.4705;34.8200 
1280.857;0.0044;0.0132;0.9922;0.0000;0.0000;0.0000;0.6482;-0.2472;-53.4705;34.8200 
1280.857;0.0044;0.0132;0.9922;0.0000;0.0000;0.0000;0.6482;-0.2472;-53.4650;34.7900 
1280.877;0.0054;0.0117;0.9932;0.0000;0.0000;0.0000;0.6482;-0.2472;-53.4650;34.7900 
1280.877;0.0054;0.0117;0.9932;0.0000;0.0000;0.0000;0.6482;-0.2472;-53.4650;34.8200 
1280.877;0.0054;0.0117;0.9932;0.0000;0.0000;0.0000;0.6482;-0.2472;-53.4650;34.8200 
1280.887;0.0054;0.0117;0.9932;0.0000;0.0000;0.0000;0.6482;-0.2472;-53.4650;34.8600 
1280.887;0.0054;0.0117;0.9932;0.0000;0.0000;0.0000;0.6482;-0.2472;-53.4595;34.8600 
1280.907;0.0054;0.0117;0.9932;0.0000;0.0000;0.0000;0.6482;-0.2472;-53.4595;34.8300 
1280.907;0.0054;0.0117;0.9932;0.0000;0.0000;0.0000;0.6482;-0.2472;-53.4595;34.8300 
1281.007;0.0054;0.0117;0.9932;0.0000;0.0000;0.0000;0.6482;-0.2527;-53.4595;34.8600 
1281.007;0.0039;0.0063;0.9932;0.0000;0.0000;0.0000;0.6482;-0.2472;-53.4540;34.8600 
1281.007;0.0039;0.0063;0.9932;0.0000;0.0000;0.0000;0.6482;-0.2472;-53.4540;34.8100 
1281.007;0.0039;0.0063;0.9932;0.0000;0.0000;0.0000;0.6482;-0.2472;-53.4540;34.8100 
1281.017;0.0039;0.0063;0.9932;0.0000;0.0000;0.0000;0.6482;-0.2472;-53.4485;34.8600 
1281.017;0.0039;0.0063;0.9932;0.0000;0.0000;0.0000;0.6427;-0.2472;-53.4485;34.8600 
1281.017;0.0039;0.0063;0.9932;0.0000;0.0000;0.0000;0.6427;-0.2472;-53.4485;34.8600 
1281.017;0.0039;0.0063;0.9932;0.0000;0.0000;0.0000;0.6427;-0.2472;-53.4430;34.7900 
1281.017;0.0039;0.0063;0.9932;0.0000;0.0000;0.0000;0.6427;-0.2472;-53.4430;34.7900 
1281.017;0.0049;0.0132;0.9932;0.0000;0.0000;0.0000;0.6427;-0.2472;-53.4430;34.8200 
1281.017;0.0049;0.0132;0.9932;0.0000;0.0000;0.0000;0.6427;-0.2472;-53.4375;34.8200 
1281.017;0.0049;0.0132;0.9932;0.0000;0.0000;0.0000;0.6427;-0.2472;-53.4375;34.8100 
1281.017;0.0049;0.0132;0.9932;0.0000;0.0000;0.0000;0.6427;-0.2472;-53.4375;34.8100 
1281.017;0.0049;0.0132;0.9932;0.0000;0.0000;0.0000;0.6427;-0.2472;-53.4320;34.8500 
1281.017;0.0049;0.0132;0.9932;0.0000;0.0000;0.0000;0.6427;-0.2472;-53.4320;34.8500 
1281.017;0.0049;0.0132;0.9932;0.0000;0.0000;0.0000;0.6427;-0.2472;-53.4320;34.8600 
1281.017;0.0049;0.0132;0.9932;0.0000;0.0000;0.0000;0.6427;-0.2527;-53.4265;34.8600 
1281.017;0.0044;0.0112;0.9927;0.0610;0.0000;0.0000;0.6482;-0.2527;-53.4265;34.8100 
1281.017;0.0044;0.0112;0.9927;0.0610;0.0000;0.0000;0.6482;-0.2527;-53.4210;34.8100 
1281.017;0.0044;0.0112;0.9927;0.0610;0.0000;0.0000;0.6482;-0.2527;-53.4210;34.7900 
1281.017;0.0044;0.0112;0.9927;0.0610;0.0000;0.0000;0.6482;-0.2527;-53.4155;34.7900 
1281.017;0.0044;0.0112;0.9927;0.0610;0.0000;0.0000;0.6482;-0.2527;-53.4155;34.8300 
1281.027;0.0044;0.0112;0.9927;0.0610;0.0000;0.0000;0.6482;-0.2527;-53.4100;34.8300 
1281.037;0.0044;0.0112;0.9927;0.0610;0.0000;0.0000;0.6482;-0.2527;-53.4100;34.8300 
1281.037;0.0044;0.0112;0.9927;0.0610;0.0000;0.0000;0.6482;-0.2527;-53.4100;34.8300 
1281.037;0.0049;0.0078;0.9937;0.0000;0.0000;0.0000;0.6482;-0.2527;-53.4045;34.8300 
1281.037;0.0049;0.0078;0.9937;0.0000;0.0000;0.0000;0.6482;-0.2527;-53.4045;34.8500 
1281.047;0.0049;0.0078;0.9937;0.0000;0.0000;0.0000;0.6482;-0.2527;-53.4045;34.8500 
1281.047;0.0049;0.0078;0.9937;0.0000;0.0000;0.0000;0.6482;-0.2527;-53.4045;34.8400 
1281.057;0.0049;0.0078;0.9937;0.0000;0.0000;0.0000;0.6427;-0.2527;-53.4045;34.8400 
1281.057;0.0049;0.0078;0.9937;0.0000;0.0000;0.0000;0.6427;-0.2527;-53.4045;34.8000 
1281.057;0.0049;0.0078;0.9937;0.0000;0.0000;0.0000;0.6427;-0.2527;-53.4045;34.8000 
1281.057;0.0049;0.0078;0.9937;0.0000;0.0000;0.0000;0.6427;-0.2527;-53.4045;34.8600 
1281.067;0.0044;0.0117;0.9927;0.0000;0.0000;0.0000;0.6427;-0.2527;-53.4045;34.8600 
1281.067;0.0044;0.0117;0.9927;0.0000;0.0000;0.0000;0.6427;-0.2527;-53.4045;34.7900 
1281.077;0.0044;0.0117;0.9927;0.0000;0.0000;0.0000;0.6427;-0.2527;-53.4045;34.7900 
1281.077;0.0044;0.0117;0.9927;0.0000;0.0000;0.0000;0.6427;-0.2527;-53.4045;34.8000 
1281.087;0.0044;0.0117;0.9927;0.0000;0.0000;0.0000;0.6427;-0.2527;-53.3990;34.8000 
1281.087;0.0044;0.0117;0.9927;0.0000;0.0000;0.0000;0.6427;-0.2527;-53.3990;34.8400 
1281.097;0.0044;0.0117;0.9927;0.0000;0.0000;0.0000;0.6427;-0.2527;-53.3990;34.8400 
1281.097;0.0044;0.0117;0.9927;0.0000;0.0000;0.0000;0.6427;-0.2527;-53.3990;34.8400 
1281.107;0.0049;0.0117;0.9927;0.0000;0.0000;0.0000;0.6427;-0.2527;-53.3936;34.8400 
1281.107;0.0049;0.0117;0.9927;0.0000;0.0000;0.0000;0.6427;-0.2527;-53.3936;34.8400 
1281.217;0.0049;0.0117;0.9927;0.0000;0.0000;0.0000;0.6427;-0.2527;-53.3936;34.8900 
1281.217;0.0049;0.0117;0.9927;0.0000;0.0000;0.0000;0.6427;-0.2527;-53.3881;34.8900 
1281.237;0.0049;0.0117;0.9927;0.0000;0.0000;0.0000;0.6427;-0.2527;-53.3881;34.8300 
1281.237;0.0049;0.0117;0.9927;0.0000;0.0000;0.0000;0.6427;-0.2527;-53.3881;34.8300 
1281.237;0.0049;0.0117;0.9927;0.0000;0.0000;0.0000;0.6427;-0.2527;-53.3881;34.8400 
1281.237;0.0049;0.0117;0.9927;0.0000;0.0000;0.0000;0.6427;-0.2527;-53.3881;34.8400 
1281.237;0.0039;0.0083;0.9932;0.0000;0.0000;0.0000;0.6427;-0.2527;-53.3826;34.8700 
1281.237;0.0039;0.0083;0.9932;0.0000;0.0000;0.0000;0.6427;-0.2527;-53.3826;34.8700 
1281.237;0.0039;0.0083;0.9932;0.0000;0.0000;0.0000;0.6427;-0.2527;-53.3826;34.8600 
1281.237;0.0039;0.0083;0.9932;0.0000;0.0000;0.0000;0.6427;-0.2527;-53.3826;34.8600 
1281.237;0.0039;0.0083;0.9932;0.0000;0.0000;0.0000;0.6427;-0.2527;-53.3826;34.8700 
1281.237;0.0039;0.0083;0.9932;0.0000;0.0000;0.0000;0.6427;-0.2527;-53.3826;34.8700 
1281.237;0.0039;0.0083;0.9932;0.0000;0.0000;0.0000;0.6427;-0.2527;-53.3826;34.8700 
1281.237;0.0039;0.0083;0.9932;0.0000;0.0000;0.0000;0.6427;-0.2527;-53.3826;34.8700 
1281.237;0.0039;0.0117;0.9927;0.0000;0.0000;0.0000;0.6427;-0.2527;-53.3826;34.8700 
1281.237;0.0039;0.0117;0.9927;0.0000;0.0000;0.0000;0.6427;-0.2527;-53.3826;34.7900 
1281.237;0.0039;0.0117;0.9927;0.0000;0.0000;0.0000;0.6427;-0.2527;-53.3826;34.7900 
1281.237;0.0039;0.0117;0.9927;0.0000;0.0000;0.0000;0.6427;-0.2527;-53.3826;34.8000 
1281.237;0.0039;0.0117;0.9927;0.0000;0.0000;0.0000;0.6427;-0.2527;-53.3826;34.8000 
1281.237;0.0039;0.0117;0.9927;0.0000;0.0000;0.0000;0.6427;-0.2527;-53.3826;34.8000 
1281.237;0.0039;0.0117;0.9927;0.0000;0.0000;0.0000;0.6427;-0.2527;-53.3826;34.8000 
1281.237;0.0039;0.0117;0.9927;0.0000;0.0000;0.0000;0.6427;-0.2472;-53.3771;34.8100 
1281.237;0.0039;0.0122;0.9932;0.0000;0.0000;0.0000;0.6427;-0.2472;-53.3771;34.8100 
1281.237;0.0039;0.0122;0.9932;0.0000;0.0000;0.0000;0.6427;-0.2472;-53.3771;34.8700 
1281.237;0.0039;0.0122;0.9932;0.0000;0.0000;0.0000;0.6427;-0.2472;-53.3771;34.8700 
1281.267;0.0039;0.0122;0.9932;0.0000;0.0000;0.0000;0.6427;-0.2472;-53.3771;34.7500 
1281.267;0.0039;0.0122;0.9932;0.0000;0.0000;0.0000;0.6427;-0.2472;-53.3716;34.7500 
1281.357;0.0039;0.0122;0.9932;0.0000;0.0000;0.0000;0.6427;-0.2472;-53.3716;34.9200 
1281.357;0.0039;0.0122;0.9932;0.0000;0.0000;0.0000;0.6427;-0.2472;-53.3716;34.9200 
1281.357;0.0039;0.0122;0.9932;0.0000;0.0000;0.0000;0.6427;-0.2472;-53.3716;34.9200 
1281.357;0.0039;0.0093;0.9937;0.0000;0.0000;0.0000;0.6427;-0.2472;-53.3661;34.8200 
1281.357;0.0039;0.0093;0.9937;0.0000;0.0000;0.0000;0.6427;-0.2472;-53.3661;34.8200 
1281.357;0.0039;0.0093;0.9937;0.0000;0.0000;0.0000;0.6427;-0.2472;-53.3661;34.8300 
1281.357;0.0039;0.0093;0.9937;0.0000;0.0000;0.0000;0.6427;-0.2472;-53.3716;34.8300 
1281.357;0.0039;0.0093;0.9937;0.0000;0.0000;0.0000;0.6427;-0.2472;-53.3716;34.8700 
1281.377;0.0039;0.0093;0.9937;0.0000;0.0000;0.0000;0.6427;-0.2472;-53.3716;34.8700 
1281.377;0.0039;0.0093;0.9937;0.0000;0.0000;0.0000;0.6427;-0.2472;-53.3716;34.8200 
1281.377;0.0039;0.0093;0.9937;0.0000;0.0000;0.0000;0.6427;-0.2472;-53.3716;34.8200 
1281.377;0.0039;0.0117;0.9937;0.0000;0.0000;0.0000;0.6427;-0.2472;-53.3716;34.8300 
1281.377;0.0039;0.0117;0.9937;0.0000;0.0000;0.0000;0.6427;-0.2472;-53.3716;34.8300 
1281.377;0.0039;0.0117;0.9937;0.0000;0.0000;0.0000;0.6427;-0.2472;-53.3716;34.7900 
1281.377;0.0039;0.0117;0.9937;0.0000;0.0000;0.0000;0.6427;-0.2472;-53.3716;34.7900 
1281.377;0.0039;0.0117;0.9937;0.0000;0.0000;0.0000;0.6427;-0.2472;-53.3716;34.8700 
1281.377;0.0039;0.0117;0.9937;0.0000;0.0000;0.0000;0.6427;-0.2472;-53.3716;34.8700 
1281.377;0.0039;0.0117;0.9937;0.0000;0.0000;0.0000;0.6427;-0.2472;-53.3716;34.7700 
1281.377;0.0039;0.0117;0.9937;0.0000;0.0000;0.0000;0.6427;-0.2472;-53.3716;34.7700 
1281.377;0.0044;0.0122;0.9937;0.0000;0.0000;0.0000;0.6427;-0.2472;-53.3716;34.7700 
1281.377;0.0044;0.0122;0.9937;0.0000;0.0000;0.0000;0.6427;-0.2472;-53.3716;34.8200 
1281.377;0.0044;0.0122;0.9937;0.0000;0.0000;0.0000;0.6427;-0.2472;-53.3716;34.8200 
1281.377;0.0044;0.0122;0.9937;0.0000;0.0000;0.0000;0.6427;-0.2472;-53.3716;34.8200 
1281.397;0.0044;0.0122;0.9937;0.0000;0.0000;0.0000;0.6427;-0.2472;-53.3716;34.8200 
1281.397;0.0044;0.0122;0.9937;0.0000;0.0000;0.0000;0.6427;-0.2472;-53.3716;34.8500 
1281.397;0.0044;0.0122;0.9937;0.0000;0.0000;0.0000;0.6427;-0.2472;-53.3716;34.8500 
1281.397;0.0044;0.0122;0.9937;0.0000;0.0000;0.0000;0.6427;-0.2472;-53.3661;34.8700 
1281.397;0.0044;0.0098;0.9937;0.0000;0.0000;0.0000;0.6427;-0.2472;-53.3661;34.8700 
1281.397;0.0044;0.0098;0.9937;0.0000;0.0000;0.0000;0.6427;-0.2472;-53.3606;34.8200 
1281.397;0.0044;0.0098;0.9937;0.0000;0.0000;0.0000;0.6427;-0.2472;-53.3606;34.8200 
1281.397;0.0044;0.0098;0.9937;0.0000;0.0000;0.0000;0.6427;-0.2472;-53.3606;34.7900 
1281.407;0.0044;0.0098;0.9937;0.0000;0.0000;0.0000;0.6427;-0.2472;-53.3551;34.7900 
1281.407;0.0044;0.0098;0.9937;0.0000;0.0000;0.0000;0.6427;-0.2472;-53.3551;34.7800 
1281.417;0.0044;0.0098;0.9937;0.0000;0.0000;0.0000;0.6427;-0.2472;-53.3551;34.7800 
1281.417;0.0044;0.0098;0.9937;0.0000;0.0000;0.0000;0.6427;-0.2472;-53.3496;34.8400 
1281.427;0.0049;0.0117;0.9937;0.0000;0.0000;0.0000;0.6427;-0.2472;-53.3496;34.8400 
1281.427;0.0049;0.0117;0.9937;0.0000;0.0000;0.0000;0.6427;-0.2472;-53.3496;34.8400 
1281.437;0.0049;0.0117;0.9937;0.0000;0.0000;0.0000;0.6427;-0.2472;-53.3496;34.7800 
1281.437;0.0049;0.0117;0.9937;0.0000;0.0000;0.0000;0.6427;-0.2472;-53.3441;34.7800 
1281.447;0.0049;0.0117;0.9937;0.0000;0.0000;0.0000;0.6427;-0.2472;-53.3441;34.8500 
1281.447;0.0049;0.0117;0.9937;0.0000;0.0000;0.0000;0.6427;-0.2472;-53.3441;34.8500 
1281.467;0.0049;0.0117;0.9937;0.0000;0.0000;0.0000;0.6427;-0.2472;-53.3441;34.8100 
1281.467;0.0049;0.0117;0.9937;0.0000;0.0000;0.0000;0.6427;-0.2472;-53.3441;34.8100 
1281.467;0.0044;0.0122;0.9927;0.0000;0.0000;0.0000;0.6427;-0.2472;-53.3386;34.8400 
1281.497;0.0044;0.0122;0.9927;0.0000;0.0000;0.0000;0.6427;-0.2472;-53.3386;34.8400 
1281.497;0.0044;0.0122;0.9927;0.0000;0.0000;0.0000;0.6427;-0.2472;-53.3386;34.8300 
1281.507;0.0044;0.0122;0.9927;0.0000;0.0000;0.0000;0.6427;-0.2472;-53.3386;34.8300 
1281.507;0.0044;0.0122;0.9927;0.0000;0.0000;0.0000;0.6427;-0.2472;-53.3331;34.7700 
1281.507;0.0044;0.0122;0.9927;0.0000;0.0000;0.0000;0.6427;-0.2472;-53.3331;34.7700 
1281.507;0.0044;0.0122;0.9927;0.0000;0.0000;0.0000;0.6427;-0.2472;-53.3331;34.8400 
1281.507;0.0044;0.0122;0.9927;0.0000;0.0000;0.0000;0.6427;-0.2472;-53.3276;34.8400 
1281.507;0.0049;0.0112;0.9932;0.0000;0.0000;0.0000;0.6427;-0.2472;-53.3276;34.8200 
1281.517;0.0049;0.0112;0.9932;0.0000;0.0000;0.0000;0.6427;-0.2472;-53.3276;34.8200 
1281.517;0.0049;0.0112;0.9932;0.0000;0.0000;0.0000;0.6427;-0.2472;-53.3276;34.8200 
1281.637;0.0049;0.0112;0.9932;0.0000;0.0000;0.0000;0.6427;-0.2472;-53.3276;34.9000 
1281.637;0.0049;0.0112;0.9932;0.0000;0.0000;0.0000;0.6427;-0.2472;-53.3276;34.9000 
1281.637;0.0049;0.0112;0.9932;0.0000;0.0000;0.0000;0.6427;-0.2472;-53.3221;34.7900 
1281.637;0.0049;0.0112;0.9932;0.0000;0.0000;0.0000;0.6427;-0.2472;-53.3221;34.7900 
1281.666;0.0049;0.0112;0.9932;0.0000;0.0000;0.0000;0.6427;-0.2472;-53.3221;34.8700 
1281.666;0.0044;0.0117;0.9927;0.0000;0.0000;0.0000;0.6427;-0.2472;-53.3221;34.8700 
1281.666;0.0044;0.0117;0.9927;0.0000;0.0000;0.0000;0.6427;-0.2472;-53.3221;34.8200 
1281.666;0.0044;0.0117;0.9927;0.0000;0.0000;0.0000;0.6427;-0.2472;-53.3221;34.8200 
1281.666;0.0044;0.0117;0.9927;0.0000;0.0000;0.0000;0.6427;-0.2472;-53.3276;34.8100 
1281.666;0.0044;0.0117;0.9927;0.0000;0.0000;0.0000;0.6427;-0.2472;-53.3276;34.8100 
1281.666;0.0044;0.0117;0.9927;0.0000;0.0000;0.0000;0.6427;-0.2472;-53.3276;34.7700 
1281.666;0.0044;0.0117;0.9927;0.0000;0.0000;0.0000;0.6482;-0.2472;-53.3276;34.7700 
1281.666;0.0044;0.0117;0.9927;0.0000;0.0000;0.0000;0.6482;-0.2472;-53.3276;34.7800 
1281.666;0.0049;0.0127;0.9932;0.0000;0.0000;0.0000;0.6482;-0.2472;-53.3276;34.7800 
1281.666;0.0049;0.0127;0.9932;0.0000;0.0000;0.0000;0.6482;-0.2472;-53.3276;34.7800 
1281.666;0.0049;0.0127;0.9932;0.0000;0.0000;0.0000;0.6482;-0.2472;-53.3331;34.7800 
1281.666;0.0049;0.0127;0.9932;0.0000;0.0000;0.0000;0.6482;-0.2472;-53.3331;34.7800 
1281.666;0.0049;0.0127;0.9932;0.0000;0.0000;0.0000;0.6482;-0.2472;-53.3331;34.8700 
1281.666;0.0049;0.0127;0.9932;0.0000;0.0000;0.0000;0.6482;-0.2472;-53.3331;34.8700 
1281.666;0.0049;0.0127;0.9932;0.0000;0.0000;0.0000;0.6482;-0.2527;-53.3331;34.8800 
1281.666;0.0049;0.0127;0.9932;0.0000;0.0000;0.0000;0.6482;-0.2527;-53.3331;34.8800 
1281.666;0.0039;0.0112;0.9932;0.0000;0.0000;0.0000;0.6482;-0.2527;-53.3331;34.7800 
1281.666;0.0039;0.0112;0.9932;0.0000;0.0000;0.0000;0.6482;-0.2472;-53.3331;34.7800 
1281.666;0.0039;0.0112;0.9932;0.0000;0.0000;0.0000;0.6482;-0.2472;-53.3331;34.8900 
1281.666;0.0039;0.0112;0.9932;0.0000;0.0000;0.0000;0.6482;-0.2472;-53.3331;34.8900 
1281.666;0.0039;0.0112;0.9932;0.0000;0.0000;0.0000;0.6482;-0.2472;-53.3331;34.8700 
1281.666;0.0039;0.0112;0.9932;0.0000;0.0000;0.0000;0.6482;-0.2472;-53.3331;34.8700 
1281.676;0.0039;0.0112;0.9932;0.0000;0.0000;0.0000;0.6482;-0.2472;-53.3331;34.8300 
1281.676;0.0039;0.0112;0.9932;0.0000;0.0000;0.0000;0.6482;-0.2472;-53.3386;34.8300 
1281.676;0.0039;0.0117;0.9937;0.0000;0.0000;0.0000;0.6482;-0.2472;-53.3386;34.8900 
1281.676;0.0039;0.0117;0.9937;0.0000;0.0000;0.0000;0.6482;-0.2472;-53.3386;34.8900 
1281.686;0.0039;0.0117;0.9937;0.0000;0.0000;0.0000;0.6482;-0.2472;-53.3386;34.8900 
1281.686;0.0039;0.0117;0.9937;0.0000;0.0000;0.0000;0.6482;-0.2472;-53.3386;34.8600 
1281.686;0.0039;0.0117;0.9937;0.0000;0.0000;0.0000;0.6482;-0.2472;-53.3386;34.8600 
1281.686;0.0039;0.0117;0.9937;0.0000;0.0000;0.0000;0.6482;-0.2472;-53.3386;34.8100 
1281.776;0.0039;0.0117;0.9937;0.0000;0.0000;0.0000;0.6482;-0.2472;-53.3386;34.8100 
1281.776;0.0039;0.0117;0.9937;0.0000;0.0000;0.0000;0.6482;-0.2472;-53.3386;34.8200 
1281.786;0.0034;0.0122;0.9932;0.0000;0.0000;0.0000;0.6482;-0.2472;-53.3386;34.8200 
1281.786;0.0034;0.0122;0.9932;0.0000;0.0000;0.0000;0.6482;-0.2472;-53.3386;34.8200 
1281.786;0.0034;0.0122;0.9932;0.0000;0.0000;0.0000;0.6482;-0.2472;-53.3386;34.8200 
1281.786;0.0034;0.0122;0.9932;0.0000;0.0000;0.0000;0.6482;-0.2472;-53.3386;34.8200 
1281.786;0.0034;0.0122;0.9932;0.0000;0.0000;0.0000;0.6482;-0.2472;-53.3386;34.8200 
1281.786;0.0034;0.0122;0.9932;0.0000;0.0000;0.0000;0.6482;-0.2472;-53.3441;34.8200 
1281.786;0.0034;0.0122;0.9932;0.0000;0.0000;0.0000;0.6482;-0.2472;-53.3441;34.8200 
1281.786;0.0034;0.0122;0.9932;0.0000;0.0000;0.0000;0.6482;-0.2472;-53.3441;34.8100 
1281.786;0.0034;0.0117;0.9932;0.0000;0.0000;0.0000;0.6482;-0.2472;-53.3441;34.8100 
1281.786;0.0034;0.0117;0.9932;0.0000;0.0000;0.0000;0.6482;-0.2472;-53.3441;34.8300 
1281.786;0.0034;0.0117;0.9932;0.0000;0.0000;0.0000;0.6482;-0.2472;-53.3441;34.8300 
1281.786;0.0034;0.0117;0.9932;0.0000;0.0000;0.0000;0.6482;-0.2472;-53.3441;34.8300 
1281.796;0.0034;0.0117;0.9932;0.0000;0.0000;0.0000;0.6482;-0.2472;-53.3441;34.8400 
1281.796;0.0034;0.0117;0.9932;0.0000;0.0000;0.0000;0.6482;-0.2472;-53.3441;34.8400 
1281.826;0.0034;0.0117;0.9932;0.0000;0.0000;0.0000;0.6482;-0.2472;-53.3441;34.8300 
1281.826;0.0034;0.0117;0.9932;0.0000;0.0000;0.0000;0.6482;-0.2472;-53.3496;34.8300 
1281.846;0.0034;0.0117;0.9932;0.0000;0.0000;0.0000;0.6482;-0.2472;-53.3496;34.8700 
1281.866;0.0034;0.0117;0.9932;0.0000;0.0000;0.0000;0.6537;-0.2472;-53.3496;34.8700 
1281.866;0.0034;0.0117;0.9932;0.0000;0.0000;0.0000;0.6537;-0.2472;-53.3496;34.8400 
1281.866;0.0034;0.0117;0.9932;0.0000;0.0000;0.0000;0.6537;-0.2472;-53.3551;34.8400 
1281.866;0.0034;0.0117;0.9932;0.0000;0.0000;0.0000;0.6537;-0.2472;-53.3551;34.8700 
1281.866;0.0034;0.0117;0.9932;0.0000;0.0000;0.0000;0.6537;-0.2472;-53.3606;34.8700 
1281.866;0.0034;0.0117;0.9932;0.0000;0.0000;0.0000;0.6537;-0.2472;-53.3661;34.8200 
1281.876;0.0034;0.0117;0.9932;0.0000;0.0000;0.0000;0.6537;-0.2472;-53.3661;34.8200 
1281.876;0.0039;0.0122;0.9922;0.0000;0.0000;0.0000;0.6537;-0.2472;-53.3716;34.8400 
1281.876;0.0039;0.0122;0.9922;0.0000;0.0000;0.0000;0.6537;-0.2472;-53.3771;34.8400 
1281.876;0.0039;0.0122;0.9922;0.0000;0.0000;0.0000;0.6537;-0.2472;-53.3771;34.8300 
1281.876;0.0039;0.0122;0.9922;0.0000;0.0000;0.0000;0.6537;-0.2472;-53.3771;34.8300 
1281.876;0.0039;0.0122;0.9922;0.0000;0.0000;0.0000;0.6537;-0.2472;-53.3826;34.8300 
1281.886;0.0039;0.0122;0.9922;0.0000;0.0000;0.0000;0.6537;-0.2472;-53.3826;34.8000 
1281.886;0.0039;0.0122;0.9922;0.0000;0.0000;0.0000;0.6537;-0.2417;-53.3826;34.8000 
1281.886;0.0039;0.0122;0.9922;0.0000;0.0000;0.0000;0.6537;-0.2417;-53.3826;34.8000 
1281.886;0.0044;0.0107;0.9927;0.0000;0.0000;0.0000;0.6537;-0.2417;-53.3826;34.8000 
1281.886;0.0044;0.0107;0.9927;0.0000;0.0000;0.0000;0.6537;-0.2417;-53.3881;34.7600 
1281.886;0.0044;0.0107;0.9927;0.0000;0.0000;0.0000;0.6537;-0.2417;-53.3881;34.7600 
1281.896;0.0044;0.0107;0.9927;0.0000;0.0000;0.0000;0.6537;-0.2417;-53.3881;34.8400 
1281.896;0.0044;0.0107;0.9927;0.0000;0.0000;0.0000;0.6537;-0.2417;-53.3881;34.8400 
1281.896;0.0044;0.0107;0.9927;0.0000;0.0000;0.0000;0.6537;-0.2417;-53.3881;34.8400 
1281.896;0.0044;0.0107;0.9927;0.0000;0.0000;0.0000;0.6537;-0.2472;-53.3881;34.8400 
1281.916;0.0044;0.0107;0.9927;0.0000;0.0000;0.0000;0.6537;-0.2472;-53.3936;34.8100 
1281.916;0.0049;0.0107;0.9927;0.0000;0.0000;0.0000;0.6537;-0.2472;-53.3936;34.8100 
1281.916;0.0049;0.0107;0.9927;0.0000;0.0000;0.0000;0.6537;-0.2472;-53.3881;34.7400 
1281.916;0.0049;0.0107;0.9927;0.0000;0.0000;0.0000;0.6537;-0.2472;-53.3881;34.7400 
1281.926;0.0049;0.0107;0.9927;0.0000;0.0000;0.0000;0.6537;-0.2472;-53.3881;34.8400 
1281.926;0.0049;0.0107;0.9927;0.0000;0.0000;0.0000;0.6537;-0.2472;-53.3881;34.8400 
1281.946;0.0049;0.0107;0.9927;0.0000;0.0000;0.0000;0.6537;-0.2472;-53.3881;34.8400 
1281.946;0.0049;0.0107;0.9927;0.0000;0.0000;0.0000;0.6537;-0.2472;-53.3881;34.8400 
1281.946;0.0049;0.0107;0.9927;0.0000;0.0000;0.0000;0.6537;-0.2472;-53.3826;34.8400 
1281.946;0.0049;0.0107;0.9927;0.0000;0.0000;0.0000;0.6537;-0.2472;-53.3826;34.7900 
1282.036;0.0049;0.0107;0.9927;0.0000;0.0000;0.0000;0.6537;-0.2472;-53.3826;34.7900 
1282.036;0.0049;0.0107;0.9927;0.0000;0.0000;0.0000;0.6537;-0.2472;-53.3826;34.7900 
1282.056;0.0049;0.0107;0.9927;0.0000;0.0000;0.0000;0.6537;-0.2472;-53.3771;34.7900 
1282.056;0.0049;0.0107;0.9927;0.0000;0.0000;0.0000;0.6537;-0.2472;-53.3771;34.7900 
1282.056;0.0049;0.0107;0.9927;0.0000;0.0000;0.0000;0.6537;-0.2472;-53.3771;34.7900 
1282.056;0.0049;0.0107;0.9927;0.0000;0.0000;0.0000;0.6537;-0.2472;-53.3771;34.8300 
1282.056;0.0049;0.0107;0.9927;0.0000;0.0000;0.0000;0.6537;-0.2472;-53.3716;34.8300 
1282.056;0.0054;0.0103;0.9932;0.0000;0.0000;0.0000;0.6482;-0.2472;-53.3716;34.8400 
1282.056;0.0054;0.0103;0.9932;0.0000;0.0000;0.0000;0.6482;-0.2472;-53.3716;34.8400 
1282.056;0.0054;0.0103;0.9932;0.0000;0.0000;0.0000;0.6482;-0.2472;-53.3661;34.8600 
1282.056;0.0054;0.0103;0.9932;0.0000;0.0000;0.0000;0.6482;-0.2472;-53.3661;34.8600 
1282.056;0.0054;0.0103;0.9932;0.0000;0.0000;0.0000;0.6482;-0.2472;-53.3606;34.8600 
1282.056;0.0054;0.0103;0.9932;0.0000;0.0000;0.0000;0.6482;-0.2472;-53.3606;34.7700 
1282.056;0.0054;0.0103;0.9932;0.0000;0.0000;0.0000;0.6482;-0.2472;-53.3606;34.7700 
1282.056;0.0054;0.0103;0.9932;0.0000;0.0000;0.0000;0.6482;-0.2472;-53.3551;34.8700 
1282.056;0.0054;0.0103;0.9932;0.0000;0.0000;0.0000;0.6482;-0.2472;-53.3551;34.8700 
1282.056;0.0054;0.0103;0.9932;0.0000;0.0000;0.0000;0.6482;-0.2472;-53.3551;34.8700 
1282.056;0.0054;0.0103;0.9932;0.0000;0.0000;0.0000;0.6482;-0.2472;-53.3551;34.8700 
1282.056;0.0054;0.0103;0.9932;0.0000;0.0000;0.0000;0.6482;-0.2472;-53.3496;34.8600 
1282.056;0.0054;0.0103;0.9932;0.0000;0.0000;0.0000;0.6482;-0.2472;-53.3496;34.8600 
1282.056;0.0054;0.0103;0.9932;0.0000;0.0000;0.0000;0.6482;-0.2472;-53.3496;34.8200 
1282.066;0.0054;0.0103;0.9932;0.0000;0.0000;0.0000;0.6482;-0.2472;-53.3496;34.8200 
1282.066;0.0054;0.0103;0.9932;0.0000;0.0000;0.0000;0.6482;-0.2472;-53.3496;34.8800 
1282.066;0.0054;0.0112;0.9927;0.0000;0.0000;0.0000;0.6482;-0.2472;-53.3496;34.8800 
1282.066;0.0054;0.0112;0.9927;0.0000;0.0000;0.0000;0.6482;-0.2472;-53.3496;34.8000 
1282.086;0.0054;0.0112;0.9927;0.0000;0.0000;0.0000;0.6482;-0.2472;-53.3496;34.8000 
1282.086;0.0054;0.0112;0.9927;0.0000;0.0000;0.0000;0.6482;-0.2472;-53.3496;34.8700 
1282.096;0.0054;0.0112;0.9927;0.0000;0.0000;0.0000;0.6482;-0.2472;-53.3496;34.8700 
1282.096;0.0054;0.0112;0.9927;0.0000;0.0000;0.0000;0.6482;-0.2472;-53.3441;34.8700 
1282.096;0.0054;0.0112;0.9927;0.0000;0.0000;0.0000;0.6482;-0.2527;-53.3441;34.8100 
1282.096;0.0054;0.0112;0.9927;0.0000;0.0000;0.0000;0.6482;-0.2527;-53.3441;34.8100 
1282.116;0.0054;0.0112;0.9932;0.0000;0.0000;0.0000;0.6482;-0.2527;-53.3441;34.8600 
1282.116;0.0054;0.0112;0.9932;0.0000;0.0000;0.0000;0.6482;-0.2527;-53.3441;34.8600 
1282.116;0.0054;0.0112;0.9932;0.0000;0.0000;0.0000;0.6482;-0.2527;-53.3441;34.8200 
1282.116;0.0054;0.0112;0.9932;0.0000;0.0000;0.0000;0.6482;-0.2527;-53.3441;34.8200 
1282.126;0.0054;0.0112;0.9932;0.0000;0.0000;0.0000;0.6482;-0.2527;-53.3441;34.8500 
1282.136;0.0054;0.0112;0.9932;0.0000;0.0000;0.0000;0.6482;-0.2527;-53.3441;34.8500 
1282.136;0.0054;0.0112;0.9932;0.0000;0.0000;0.0000;0.6482;-0.2527;-53.3441;34.8200 
1282.146;0.0054;0.0112;0.9932;0.0000;0.0000;0.0000;0.6482;-0.2527;-53.3441;34.8200 
1282.146;0.0049;0.0107;0.9927;0.0000;0.0000;0.0000;0.6482;-0.2527;-53.3441;34.7800 
1282.236;0.0049;0.0107;0.9927;0.0000;0.0000;0.0000;0.6482;-0.2527;-53.3496;34.7800 
1282.236;0.0049;0.0107;0.9927;0.0000;0.0000;0.0000;0.6482;-0.2527;-53.3496;34.7500 
1282.256;0.0049;0.0107;0.9927;0.0000;0.0000;0.0000;0.6482;-0.2527;-53.3496;34.7500 
1282.256;0.0049;0.0107;0.9927;0.0000;0.0000;0.0000;0.6482;-0.2527;-53.3496;34.8200 
1282.256;0.0049;0.0107;0.9927;0.0000;0.0000;0.0000;0.6482;-0.2527;-53.3551;34.8200 
1282.256;0.0049;0.0107;0.9927;0.0000;0.0000;0.0000;0.6482;-0.2527;-53.3551;34.8200 
1282.256;0.0049;0.0107;0.9927;0.0000;0.0000;0.0000;0.6482;-0.2527;-53.3551;34.7700 
1282.256;0.0054;0.0107;0.9927;0.0000;0.0000;0.0000;0.6482;-0.2527;-53.3551;34.7700 
1282.256;0.0054;0.0107;0.9927;0.0000;0.0000;0.0000;0.6482;-0.2527;-53.3551;34.8600 
1282.256;0.0054;0.0107;0.9927;0.0000;0.0000;0.0000;0.6482;-0.2527;-53.3551;34.8600 
1282.256;0.0054;0.0107;0.9927;0.0000;0.0000;0.0000;0.6482;-0.2527;-53.3606;34.8400 
1282.256;0.0054;0.0107;0.9927;0.0000;0.0000;0.0000;0.6482;-0.2527;-53.3606;34.8400 
1282.256;0.0054;0.0107;0.9927;0.0000;0.0000;0.0000;0.6482;-0.2527;-53.3606;34.8100 
1282.256;0.0054;0.0107;0.9927;0.0000;0.0000;0.0000;0.6482;-0.2527;-53.3661;34.8100 
1282.256;0.0054;0.0107;0.9927;0.0000;0.0000;0.0000;0.6482;-0.2527;-53.3661;34.8200 
1282.256;0.0049;0.0117;0.9927;0.0000;0.0000;0.0000;0.6482;-0.2527;-53.3661;34.8200 
1282.256;0.0049;0.0117;0.9927;0.0000;0.0000;0.0000;0.6482;-0.2527;-53.3716;34.8500 
1282.256;0.0049;0.0117;0.9927;0.0000;0.0000;0.0000;0.6482;-0.2527;-53.3716;34.8500 
1282.256;0.0049;0.0117;0.9927;0.0000;0.0000;0.0000;0.6482;-0.2527;-53.3716;34.8700 
1282.256;0.0049;0.0117;0.9927;0.0000;0.0000;0.0000;0.6482;-0.2527;-53.3716;34.8700 
1282.256;0.0049;0.0117;0.9927;0.0000;0.0000;0.0000;0.6482;-0.2527;-53.3716;34.8400 
1282.256;0.0049;0.0117;0.9927;0.0000;0.0000;0.0000;0.6482;-0.2527;-53.3716;34.8400 
1282.276;0.0049;0.0117;0.9927;0.0000;0.0000;0.0000;0.6482;-0.2527;-53.3716;34.8400 
1282.276;0.0054;0.0112;0.9932;0.0000;0.0000;0.0000;0.6482;-0.2527;-53.3716;34.7900 
1282.276;0.0054;0.0112;0.9932;0.0000;0.0000;0.0000;0.6482;-0.2527;-53.3716;34.7900 
1282.276;0.0054;0.0112;0.9932;0.0000;0.0000;0.0000;0.6482;-0.2527;-53.3716;34.8200 
1282.286;0.0054;0.0112;0.9932;0.0000;0.0000;0.0000;0.6482;-0.2527;-53.3716;34.8200 
1282.286;0.0054;0.0112;0.9932;0.0000;0.0000;0.0000;0.6482;-0.2527;-53.3661;34.8200 
1282.296;0.0054;0.0112;0.9932;0.0000;0.0000;0.0000;0.6482;-0.2527;-53.3661;34.8200 
1282.316;0.0054;0.0112;0.9932;0.0000;0.0000;0.0000;0.6482;-0.2527;-53.3661;34.8400 
1282.316;0.0054;0.0112;0.9932;0.0000;0.0000;0.0000;0.6482;-0.2527;-53.3661;34.8400 
1282.336;0.0049;0.0122;0.9927;0.0000;0.0000;0.0000;0.6482;-0.2527;-53.3661;34.8800 
1282.336;0.0049;0.0122;0.9927;0.0000;0.0000;0.0000;0.6482;-0.2527;-53.3661;34.8800 
1282.336;0.0049;0.0122;0.9927;0.0000;0.0000;0.0000;0.6482;-0.2582;-53.3661;34.8600 
1282.336;0.0049;0.0122;0.9927;0.0000;0.0000;0.0000;0.6482;-0.2582;-53.3661;34.8600 
1282.336;0.0049;0.0122;0.9927;0.0000;0.0000;0.0000;0.6482;-0.2582;-53.3661;34.7800 
1282.336;0.0049;0.0122;0.9927;0.0000;0.0000;0.0000;0.6482;-0.2582;-53.3661;34.7800 
1282.346;0.0049;0.0122;0.9927;0.0000;0.0000;0.0000;0.6482;-0.2582;-53.3661;34.7800 
1282.346;0.0049;0.0122;0.9927;0.0000;0.0000;0.0000;0.6482;-0.2582;-53.3661;34.7700 
1282.436;0.0049;0.0127;0.9927;0.0000;0.0000;0.0000;0.6482;-0.2582;-53.3661;34.7700 
1282.436;0.0049;0.0127;0.9927;0.0000;0.0000;0.0000;0.6482;-0.2582;-53.3661;34.7600 
1282.456;0.0049;0.0127;0.9927;0.0000;0.0000;0.0000;0.6482;-0.2582;-53.3606;34.7600 
1282.456;0.0049;0.0127;0.9927;0.0000;0.0000;0.0000;0.6537;-0.2582;-53.3606;34.8100 
1282.456;0.0049;0.0127;0.9927;0.0000;0.0000;0.0000;0.6537;-0.2582;-53.3606;34.8100 
1282.456;0.0049;0.0127;0.9927;0.0000;0.0000;0.0000;0.6537;-0.2582;-53.3606;34.7900 
1282.456;0.0049;0.0127;0.9927;0.0000;0.0000;0.0000;0.6537;-0.2582;-53.3551;34.7900 
1282.456;0.0049;0.0127;0.9927;0.0000;0.0000;0.0000;0.6537;-0.2582;-53.3551;34.7800 
1282.456;0.0049;0.0112;0.9927;0.0000;0.0000;0.0000;0.6537;-0.2582;-53.3551;34.7800 
1282.456;0.0049;0.0112;0.9927;0.0000;0.0000;0.0000;0.6537;-0.2582;-53.3496;34.8700 
1282.456;0.0049;0.0112;0.9927;0.0000;0.0000;0.0000;0.6537;-0.2582;-53.3496;34.8700 
1282.456;0.0049;0.0112;0.9927;0.0000;0.0000;0.0000;0.6537;-0.2582;-53.3496;34.7900 
1282.456;0.0049;0.0112;0.9927;0.0000;0.0000;0.0000;0.6537;-0.2582;-53.3496;34.7900 
1282.456;0.0049;0.0112;0.9927;0.0000;0.0000;0.0000;0.6537;-0.2582;-53.3496;34.8200 
1282.456;0.0049;0.0112;0.9927;0.0000;0.0000;0.0000;0.6537;-0.2582;-53.3496;34.8200 
1282.456;0.0049;0.0112;0.9927;0.0000;0.0000;0.0000;0.6537;-0.2582;-53.3441;34.8200 
1282.456;0.0049;0.0117;0.9927;0.0000;0.0000;0.0000;0.6537;-0.2582;-53.3441;34.7800 
1282.456;0.0049;0.0117;0.9927;0.0000;0.0000;0.0000;0.6537;-0.2582;-53.3441;34.7800 
1282.456;0.0049;0.0117;0.9927;0.0000;0.0000;0.0000;0.6537;-0.2582;-53.3441;34.8200 
1282.456;0.0049;0.0117;0.9927;0.0000;0.0000;0.0000;0.6537;-0.2582;-53.3441;34.8200 
1282.456;0.0049;0.0117;0.9927;0.0000;0.0000;0.0000;0.6537;-0.2582;-53.3441;34.8000 
1282.456;0.0049;0.0117;0.9927;0.0000;0.0000;0.0000;0.6537;-0.2582;-53.3441;34.8000 
1282.466;0.0049;0.0117;0.9927;0.0000;0.0000;0.0000;0.6537;-0.2582;-53.3441;34.8300 
1282.466;0.0049;0.0117;0.9927;0.0000;0.0000;0.0000;0.6537;-0.2582;-53.3441;34.8300 
1282.466;0.0049;0.0117;0.9922;0.0000;0.0000;0.0000;0.6537;-0.2582;-53.3441;34.8900 
1282.476;0.0049;0.0117;0.9922;0.0000;0.0000;0.0000;0.6537;-0.2582;-53.3441;34.8900 
1282.476;0.0049;0.0117;0.9922;0.0000;0.0000;0.0000;0.6537;-0.2582;-53.3441;34.8400 
1282.486;0.0049;0.0117;0.9922;0.0000;0.0000;0.0000;0.6537;-0.2582;-53.3441;34.8400 
1282.486;0.0049;0.0117;0.9922;0.0000;0.0000;0.0000;0.6537;-0.2582;-53.3386;34.8600 
1282.496;0.0049;0.0117;0.9922;0.0000;0.0000;0.0000;0.6537;-0.2582;-53.3386;34.8600 
1282.496;0.0049;0.0117;0.9922;0.0000;0.0000;0.0000;0.6537;-0.2582;-53.3386;34.7700 
1282.506;0.0049;0.0117;0.9922;0.0000;0.0000;0.0000;0.6537;-0.2582;-53.3331;34.7700 
1282.506;0.0049;0.0112;0.9922;0.0000;0.0000;0.0000;0.6537;-0.2582;-53.3331;34.7700 
1282.516;0.0049;0.0112;0.9922;0.0000;0.0000;0.0000;0.6537;-0.2582;-53.3331;34.8100 
1282.516;0.0049;0.0112;0.9922;0.0000;0.0000;0.0000;0.6537;-0.2582;-53.3331;34.8100 
1282.536;0.0049;0.0112;0.9922;0.0000;0.0000;0.0000;0.6537;-0.2582;-53.3331;34.7800 
1282.536;0.0049;0.0112;0.9922;0.0000;0.0000;0.0000;0.6537;-0.2582;-53.3331;34.7800 
1282.536;0.0049;0.0112;0.9922;0.0000;0.0000;0.0000;0.6537;-0.2582;-53.3276;34.7700 
1282.536;0.0049;0.0112;0.9922;0.0000;0.0000;0.0000;0.6537;-0.2582;-53.3276;34.7700 
1282.636;0.0049;0.0112;0.9922;0.0000;0.0000;0.0000;0.6537;-0.2582;-53.3276;34.8600 
1282.636;0.0049;0.0117;0.9922;0.0000;0.0000;0.0000;0.6537;-0.2582;-53.3276;34.8600 
1282.646;0.0049;0.0117;0.9922;0.0000;0.0000;0.0000;0.6537;-0.2582;-53.3276;34.8000 
1282.646;0.0049;0.0117;0.9922;0.0000;0.0000;0.0000;0.6537;-0.2582;-53.3276;34.8000 
1282.646;0.0049;0.0117;0.9922;0.0000;0.0000;0.0000;0.6537;-0.2582;-53.3276;34.8100 
1282.646;0.0049;0.0117;0.9922;0.0000;0.0000;0.0000;0.6537;-0.2582;-53.3276;34.8100 
1282.646;0.0049;0.0117;0.9922;0.0000;0.0000;0.0000;0.6537;-0.2582;-53.3276;34.8000 
1282.646;0.0049;0.0117;0.9922;0.0000;0.0000;0.0000;0.6537;-0.2582;-53.3276;34.8000 
1282.646;0.0049;0.0117;0.9922;0.0000;0.0000;0.0000;0.6537;-0.2582;-53.3276;34.8200 
1282.646;0.0044;0.0117;0.9917;0.0000;0.0000;0.0000;0.6537;-0.2582;-53.3276;34.8200 
1282.646;0.0044;0.0117;0.9917;0.0000;0.0000;0.0000;0.6537;-0.2582;-53.3276;34.8200 
1282.646;0.0044;0.0117;0.9917;0.0000;0.0000;0.0000;0.6537;-0.2582;-53.3276;34.8700 
1282.646;0.0044;0.0117;0.9917;0.0000;0.0000;0.0000;0.6537;-0.2582;-53.3221;34.8700 
1282.646;0.0044;0.0117;0.9917;0.0000;0.0000;0.0000;0.6537;-0.2582;-53.3221;34.8500 
1282.646;0.0044;0.0117;0.9917;0.0000;0.0000;0.0000;0.6537;-0.2582;-53.3221;34.8500 
1282.646;0.0044;0.0117;0.9917;0.0000;0.0000;0.0000;0.6537;-0.2582;-53.3221;34.8900 
1282.646;0.0044;0.0117;0.9917;0.0000;0.0000;0.0000;0.6537;-0.2582;-53.3167;34.8900 
1282.646;0.0044;0.0117;0.9922;0.0000;0.0000;0.0000;0.6537;-0.2582;-53.3167;34.8500 
1282.646;0.0044;0.0117;0.9922;0.0000;0.0000;0.0000;0.6537;-0.2582;-53.3167;34.8500 
1282.646;0.0044;0.0117;0.9922;0.0000;0.0000;0.0000;0.6537;-0.2582;-53.3167;34.8300 
1282.646;0.0044;0.0117;0.9922;0.0000;0.0000;0.0000;0.6537;-0.2582;-53.3112;34.8300 
1282.656;0.0044;0.0117;0.9922;0.0000;0.0000;0.0000;0.6537;-0.2582;-53.3112;34.8100 
1282.656;0.0044;0.0117;0.9922;0.0000;0.0000;0.0000;0.6537;-0.2582;-53.3112;34.8100 
1282.676;0.0044;0.0117;0.9922;0.0000;0.0000;0.0000;0.6537;-0.2582;-53.3112;34.8900 
1282.676;0.0044;0.0117;0.9922;0.0000;0.0000;0.0000;0.6537;-0.2582;-53.3112;34.8900 
1282.686;0.0044;0.0127;0.9917;0.0000;0.0000;0.0000;0.6537;-0.2582;-53.3112;34.8900 
1282.686;0.0044;0.0127;0.9917;0.0000;0.0000;0.0000;0.6537;-0.2582;-53.3112;34.8400 
1282.686;0.0044;0.0127;0.9917;0.0000;0.0000;0.0000;0.6537;-0.2582;-53.3112;34.8400 
1282.686;0.0044;0.0127;0.9917;0.0000;0.0000;0.0000;0.6537;-0.2582;-53.3057;34.8300 
1282.686;0.0044;0.0127;0.9917;0.0000;0.0000;0.0000;0.6592;-0.2582;-53.3057;34.8300 
1282.686;0.0044;0.0127;0.9917;0.0000;0.0000;0.0000;0.6592;-0.2582;-53.3057;34.7800 
1282.696;0.0044;0.0127;0.9917;0.0000;0.0000;0.0000;0.6592;-0.2582;-53.3002;34.7800 
1282.696;0.0044;0.0127;0.9917;0.0000;0.0000;0.0000;0.6592;-0.2582;-53.3002;34.8700 
1282.706;0.0044;0.0117;0.9917;0.0000;0.0000;0.0000;0.6592;-0.2582;-53.3002;34.8700 
1282.706;0.0044;0.0117;0.9917;0.0000;0.0000;0.0000;0.6592;-0.2582;-53.2947;34.8300 
1282.716;0.0044;0.0117;0.9917;0.0000;0.0000;0.0000;0.6592;-0.2582;-53.2947;34.8300 
1282.716;0.0044;0.0117;0.9917;0.0000;0.0000;0.0000;0.6592;-0.2582;-53.2947;34.8300 
1282.726;0.0044;0.0117;0.9917;0.0000;0.0000;0.0000;0.6592;-0.2582;-53.2947;34.8300 
1282.726;0.0044;0.0117;0.9917;0.0000;0.0000;0.0000;0.6592;-0.2582;-53.2947;34.7800 
1282.736;0.0044;0.0117;0.9917;0.0000;0.0000;0.0000;0.6592;-0.2582;-53.2947;34.7800 
1282.736;0.0044;0.0112;0.9917;0.0000;0.0000;0.0000;0.6592;-0.2582;-53.2947;34.8600 
1282.836;0.0044;0.0112;0.9917;0.0000;0.0000;0.0000;0.6592;-0.2582;-53.2892;34.8600 
1282.836;0.0044;0.0112;0.9917;0.0000;0.0000;0.0000;0.6592;-0.2582;-53.2892;34.8600 
1282.836;0.0044;0.0112;0.9917;0.0000;0.0000;0.0000;0.6592;-0.2582;-53.2892;34.8000 
1282.836;0.0044;0.0112;0.9917;0.0000;0.0000;0.0000;0.6592;-0.2582;-53.2892;34.8000 
1282.856;0.0044;0.0112;0.9917;0.0000;0.0000;0.0000;0.6592;-0.2582;-53.2892;34.8200 
1282.856;0.0044;0.0112;0.9917;0.0000;0.0000;0.0000;0.6592;-0.2582;-53.2892;34.8200 
1282.856;0.0044;0.0112;0.9917;0.0000;0.0000;0.0000;0.6592;-0.2582;-53.2947;34.8500 
1282.856;0.0049;0.0112;0.9922;0.0000;0.0000;0.0000;0.6592;-0.2582;-53.2947;34.8500 
1282.856;0.0049;0.0112;0.9922;0.0000;0.0000;0.0000;0.6592;-0.2582;-53.2947;34.8200 
1282.856;0.0049;0.0112;0.9922;0.0000;0.0000;0.0000;0.6592;-0.2582;-53.2947;34.8200 
1282.856;0.0049;0.0112;0.9922;0.0000;0.0000;0.0000;0.6592;-0.2582;-53.2947;34.8600 
1282.856;0.0049;0.0112;0.9922;0.0000;0.0000;0.0000;0.6592;-0.2582;-53.3002;34.8600 
1282.856;0.0049;0.0112;0.9922;0.0000;0.0000;0.0000;0.6592;-0.2582;-53.3002;34.8600 
1282.856;0.0049;0.0112;0.9922;0.0000;0.0000;0.0000;0.6592;-0.2582;-53.3002;34.8600 
1282.856;0.0049;0.0112;0.9922;0.0000;0.0000;0.0000;0.6592;-0.2582;-53.3002;34.8400 
1282.856;0.0049;0.0093;0.9927;0.0000;0.0000;0.0000;0.6592;-0.2582;-53.3002;34.8400 
1282.856;0.0049;0.0093;0.9927;0.0000;0.0000;0.0000;0.6592;-0.2582;-53.3057;34.7700 
1282.856;0.0049;0.0093;0.9927;0.0000;0.0000;0.0000;0.6592;-0.2582;-53.3057;34.7700 
1282.856;0.0049;0.0093;0.9927;0.0000;0.0000;0.0000;0.6537;-0.2582;-53.3057;34.7700 
1282.856;0.0049;0.0093;0.9927;0.0000;0.0000;0.0000;0.6537;-0.2582;-53.3057;34.8400 
1282.856;0.0049;0.0093;0.9927;0.0000;0.0000;0.0000;0.6537;-0.2582;-53.3057;34.8400 
1282.856;0.0049;0.0093;0.9927;0.0000;0.0000;0.0000;0.6537;-0.2582;-53.3057;34.7600 
1282.856;0.0049;0.0093;0.9927;0.0000;0.0000;0.0000;0.6537;-0.2582;-53.3057;34.7600 
1282.866;0.0049;0.0098;0.9932;0.0000;0.0000;0.0000;0.6537;-0.2582;-53.3057;34.8100 
1282.866;0.0049;0.0098;0.9932;0.0000;0.0000;0.0000;0.6537;-0.2582;-53.3057;34.8100 
1282.876;0.0049;0.0098;0.9932;0.0000;0.0000;0.0000;0.6537;-0.2582;-53.3002;34.8300 
1282.876;0.0049;0.0098;0.9932;0.0000;0.0000;0.0000;0.6537;-0.2582;-53.3002;34.8300 
1282.896;0.0049;0.0098;0.9932;0.0000;0.0000;0.0000;0.6537;-0.2582;-53.3002;34.8800 
1282.896;0.0049;0.0098;0.9932;0.0000;0.0000;0.0000;0.6537;-0.2582;-53.3002;34.8800 
1282.896;0.0049;0.0098;0.9932;0.0000;0.0000;0.0000;0.6537;-0.2582;-53.3002;34.8100 
1282.896;0.0049;0.0098;0.9932;0.0000;0.0000;0.0000;0.6537;-0.2582;-53.3002;34.8100 
1282.916;0.0049;0.0107;0.9932;0.0000;0.0000;0.0000;0.6537;-0.2582;-53.3002;34.8100 
1282.926;0.0049;0.0107;0.9932;0.0000;0.0000;0.0000;0.6537;-0.2582;-53.3002;34.8100 
1282.926;0.0049;0.0107;0.9932;0.0000;0.0000;0.0000;0.6537;-0.2582;-53.3002;34.7900 
1282.926;0.0049;0.0107;0.9932;0.0000;0.0000;0.0000;0.6537;-0.2582;-53.2947;34.7900 
1282.926;0.0049;0.0107;0.9932;0.0000;0.0000;0.0000;0.6537;-0.2582;-53.2947;34.7900 
1282.936;0.0049;0.0107;0.9932;0.0000;0.0000;0.0000;0.6537;-0.2582;-53.2947;34.8200 
1282.936;0.0049;0.0107;0.9932;0.0000;0.0000;0.0000;0.6537;-0.2582;-53.2947;34.8200 
1282.946;0.0049;0.0107;0.9932;0.0000;0.0000;0.0000;0.6537;-0.2582;-53.2947;34.8300 
1282.946;0.0049;0.0093;0.9932;0.0000;0.0000;0.0000;0.6537;-0.2582;-53.2947;34.8300 
1283.036;0.0049;0.0093;0.9932;0.0000;0.0000;0.0000;0.6537;-0.2582;-53.2947;34.8100 
1283.036;0.0049;0.0093;0.9932;0.0000;0.0000;0.0000;0.6537;-0.2582;-53.2892;34.8100 
1283.056;0.0049;0.0093;0.9932;0.0000;0.0000;0.0000;0.6482;-0.2582;-53.2892;34.8500 
1283.056;0.0049;0.0093;0.9932;0.0000;0.0000;0.0000;0.6482;-0.2582;-53.2892;34.8500 
1283.056;0.0049;0.0093;0.9932;0.0000;0.0000;0.0000;0.6482;-0.2582;-53.2892;34.8000 
1283.056;0.0049;0.0093;0.9932;0.0000;0.0000;0.0000;0.6482;-0.2582;-53.2892;34.8000 
1283.056;0.0049;0.0093;0.9932;0.0000;0.0000;0.0000;0.6482;-0.2582;-53.2892;34.8200 
1283.056;0.0049;0.0103;0.9932;0.0000;0.0000;0.0000;0.6482;-0.2582;-53.2892;34.8200 
1283.056;0.0049;0.0103;0.9932;0.0000;0.0000;0.0000;0.6482;-0.2582;-53.2892;34.8000 
1283.056;0.0049;0.0103;0.9932;0.0000;0.0000;0.0000;0.6482;-0.2582;-53.2837;34.8000 
1283.056;0.0049;0.0103;0.9932;0.0000;0.0000;0.0000;0.6482;-0.2582;-53.2837;34.8500 
1283.056;0.0049;0.0103;0.9932;0.0000;0.0000;0.0000;0.6482;-0.2582;-53.2837;34.8500 
1283.056;0.0049;0.0103;0.9932;0.0000;0.0000;0.0000;0.6482;-0.2582;-53.2837;34.8500 
1283.056;0.0049;0.0103;0.9932;0.0000;0.0000;0.0000;0.6482;-0.2582;-53.2837;34.9000 
1283.056;0.0049;0.0103;0.9932;0.0000;0.0000;0.0000;0.6482;-0.2582;-53.2837;34.9000 
1283.056;0.0049;0.0117;0.9932;0.0000;0.0000;0.0000;0.6482;-0.2582;-53.2782;34.8200 
1283.066;0.0049;0.0117;0.9932;0.0000;0.0000;0.0000;0.6482;-0.2582;-53.2782;34.8200 
1283.066;0.0049;0.0117;0.9932;0.0000;0.0000;0.0000;0.6482;-0.2582;-53.2782;34.8200 
1283.076;0.0049;0.0117;0.9932;0.0000;0.0000;0.0000;0.6482;-0.2582;-53.2782;34.8200 
1283.076;0.0049;0.0117;0.9932;0.0000;0.0000;0.0000;0.6482;-0.2582;-53.2782;34.8100 
1283.076;0.0049;0.0117;0.9932;0.0000;0.0000;0.0000;0.6482;-0.2582;-53.2782;34.8100 
1283.076;0.0049;0.0117;0.9932;0.0000;0.0000;0.0000;0.6482;-0.2582;-53.2782;34.8200 
1283.096;0.0049;0.0117;0.9932;0.0000;0.0000;0.0000;0.6482;-0.2582;-53.2782;34.8200 
1283.096;0.0044;0.0103;0.9932;0.0000;0.0000;0.0000;0.6482;-0.2582;-53.2782;34.8500 
1283.096;0.0044;0.0103;0.9932;0.0000;0.0000;0.0000;0.6482;-0.2582;-53.2782;34.8500 
1283.096;0.0044;0.0103;0.9932;0.0000;0.0000;0.0000;0.6482;-0.2582;-53.2782;34.8100 
1283.096;0.0044;0.0103;0.9932;0.0000;0.0000;0.0000;0.6482;-0.2582;-53.2782;34.8100 
1283.096;0.0044;0.0103;0.9932;0.0000;0.0000;0.0000;0.6482;-0.2582;-53.2782;34.8100 
1283.096;0.0044;0.0103;0.9932;0.0000;0.0000;0.0000;0.6482;-0.2582;-53.2782;34.7700 
1283.096;0.0044;0.0103;0.9932;0.0000;0.0000;0.0000;0.6482;-0.2582;-53.2782;34.7700 
1283.096;0.0044;0.0103;0.9932;0.0000;0.0000;0.0000;0.6482;-0.2582;-53.2782;34.7900 
1283.106;0.0049;0.0107;0.9932;0.0000;0.0000;0.0000;0.6482;-0.2582;-53.2782;34.7900 
1283.106;0.0049;0.0107;0.9932;0.0000;0.0000;0.0000;0.6482;-0.2582;-53.2782;34.8100 
1283.116;0.0049;0.0107;0.9932;0.0000;0.0000;0.0000;0.6482;-0.2582;-53.2782;34.8100 
1283.116;0.0049;0.0107;0.9932;0.0000;0.0000;0.0000;0.6482;-0.2582;-53.2837;34.8400 
1283.126;0.0049;0.0107;0.9932;0.0000;0.0000;0.0000;0.6482;-0.2582;-53.2837;34.8400 
1283.126;0.0049;0.0107;0.9932;0.0000;0.0000;0.0000;0.6482;-0.2637;-53.2837;34.8100 
1283.146;0.0049;0.0107;0.9932;0.0000;0.0000;0.0000;0.6482;-0.2637;-53.2837;34.8100 
1283.146;0.0049;0.0107;0.9932;0.0000;0.0000;0.0000;0.6482;-0.2637;-53.2837;34.8000 
1283.236;0.0049;0.0117;0.9932;0.0000;0.0000;0.0000;0.6482;-0.2637;-53.2837;34.8000 
1283.236;0.0049;0.0117;0.9932;0.0000;0.0000;0.0000;0.6482;-0.2637;-53.2837;34.7900 
1283.236;0.0049;0.0117;0.9932;0.0000;0.0000;0.0000;0.6482;-0.2637;-53.2837;34.7900 
1283.236;0.0049;0.0117;0.9932;0.0000;0.0000;0.0000;0.6482;-0.2637;-53.2837;34.8500 
1283.236;0.0049;0.0117;0.9932;0.0000;0.0000;0.0000;0.6482;-0.2637;-53.2837;34.8500 
1283.236;0.0049;0.0117;0.9932;0.0000;0.0000;0.0000;0.6482;-0.2637;-53.2837;34.8500 
1283.256;0.0049;0.0117;0.9932;0.0000;0.0000;0.0000;0.6482;-0.2637;-53.2837;34.8300 
1283.256;0.0049;0.0117;0.9932;0.0000;0.0000;0.0000;0.6482;-0.2637;-53.2837;34.8300 
1283.256;0.0054;0.0107;0.9932;0.0000;0.0000;0.0000;0.6482;-0.2637;-53.2782;34.8100 
1283.256;0.0054;0.0107;0.9932;0.0000;0.0000;0.0000;0.6482;-0.2637;-53.2782;34.8100 
1283.256;0.0054;0.0107;0.9932;0.0000;0.0000;0.0000;0.6482;-0.2637;-53.2782;34.8100 
1283.256;0.0054;0.0107;0.9932;0.0000;0.0000;0.0000;0.6482;-0.2637;-53.2782;34.8100 
1283.256;0.0054;0.0107;0.9932;0.0000;0.0000;0.0000;0.6482;-0.2637;-53.2782;34.7400 
1283.256;0.0054;0.0107;0.9932;0.0000;0.0000;0.0000;0.6482;-0.2637;-53.2727;34.7400 
1283.256;0.0054;0.0107;0.9932;0.0000;0.0000;0.0000;0.6482;-0.2637;-53.2727;34.7900 
1283.256;0.0054;0.0107;0.9932;0.0000;0.0000;0.0000;0.6482;-0.2637;-53.2727;34.7900 
1283.256;0.0049;0.0107;0.9927;0.0000;0.0000;0.0000;0.6482;-0.2637;-53.2672;34.8300 
1283.256;0.0049;0.0107;0.9927;0.0000;0.0000;0.0000;0.6482;-0.2637;-53.2672;34.8300 
1283.256;0.0049;0.0107;0.9927;0.0000;0.0000;0.0000;0.6482;-0.2637;-53.2672;34.8600 
1283.256;0.0049;0.0107;0.9927;0.0000;0.0000;0.0000;0.6482;-0.2637;-53.2672;34.8600 
1283.256;0.0049;0.0107;0.9927;0.0000;0.0000;0.0000;0.6482;-0.2637;-53.2617;34.8100 
1283.276;0.0049;0.0107;0.9927;0.0000;0.0000;0.0000;0.6482;-0.2637;-53.2617;34.8100 
1283.276;0.0049;0.0107;0.9927;0.0000;0.0000;0.0000;0.6482;-0.2637;-53.2617;34.8100 
1283.276;0.0049;0.0107;0.9927;0.0000;0.0000;0.0000;0.6482;-0.2637;-53.2617;34.8100 
1283.276;0.0054;0.0122;0.9927;0.0000;0.0000;0.0000;0.6482;-0.2637;-53.2562;34.8100 
1283.276;0.0054;0.0122;0.9927;0.0000;0.0000;0.0000;0.6482;-0.2637;-53.2562;34.8000 
1283.276;0.0054;0.0122;0.9927;0.0000;0.0000;0.0000;0.6482;-0.2637;-53.2617;34.8000 
1283.286;0.0054;0.0122;0.9927;0.0000;0.0000;0.0000;0.6482;-0.2637;-53.2617;34.8400 
1283.286;0.0054;0.0122;0.9927;0.0000;0.0000;0.0000;0.6482;-0.2637;-53.2617;34.8400 
1283.296;0.0054;0.0122;0.9927;0.0000;0.0000;0.0000;0.6482;-0.2637;-53.2617;34.9100 
1283.296;0.0054;0.0122;0.9927;0.0000;0.0000;0.0000;0.6482;-0.2637;-53.2617;34.9100 
1283.306;0.0054;0.0122;0.9927;0.0000;0.0000;0.0000;0.6482;-0.2637;-53.2617;34.8100 
1283.306;0.0054;0.0107;0.9922;0.0000;0.0000;0.0000;0.6482;-0.2637;-53.2672;34.8100 
1283.316;0.0054;0.0107;0.9922;0.0000;0.0000;0.0000;0.6482;-0.2637;-53.2672;34.8000 
1283.316;0.0054;0.0107;0.9922;0.0000;0.0000;0.0000;0.6482;-0.2637;-53.2672;34.8000 
1283.326;0.0054;0.0107;0.9922;0.0000;0.0000;0.0000;0.6482;-0.2637;-53.2672;34.8400 
1283.326;0.0054;0.0107;0.9922;0.0000;0.0000;0.0000;0.6482;-0.2637;-53.2672;34.8400 
1283.336;0.0054;0.0107;0.9922;0.0000;0.0000;0.0000;0.6482;-0.2637;-53.2617;34.8800 
1283.336;0.0054;0.0107;0.9922;0.0000;0.0000;0.0000;0.6482;-0.2637;-53.2617;34.8800 
1283.346;0.0054;0.0107;0.9922;0.0000;0.0000;0.0000;0.6482;-0.2637;-53.2617;34.8800 
1283.346;0.0054;0.0112;0.9922;0.0000;0.0000;0.0000;0.6482;-0.2637;-53.2562;34.8300 
1283.436;0.0054;0.0112;0.9922;0.0000;0.0000;0.0000;0.6482;-0.2637;-53.2562;34.8300 
1283.436;0.0054;0.0112;0.9922;0.0000;0.0000;0.0000;0.6482;-0.2637;-53.2562;34.8000 
1283.436;0.0054;0.0112;0.9922;0.0000;0.0000;0.0000;0.6482;-0.2637;-53.2507;34.8000 
1283.436;0.0054;0.0112;0.9922;0.0000;0.0000;0.0000;0.6482;-0.2637;-53.2507;34.8100 
1283.446;0.0054;0.0112;0.9922;0.0000;0.0000;0.0000;0.6482;-0.2637;-53.2507;34.8100 
1283.446;0.0054;0.0112;0.9922;0.0000;0.0000;0.0000;0.6482;-0.2637;-53.2507;34.8700 
1283.446;0.0054;0.0112;0.9922;0.0000;0.0000;0.0000;0.6482;-0.2637;-53.2507;34.8700 
1283.446;0.0054;0.0117;0.9927;0.0000;0.0000;0.0000;0.6482;-0.2637;-53.2507;34.7700 
1283.446;0.0054;0.0117;0.9927;0.0000;0.0000;0.0000;0.6482;-0.2637;-53.2507;34.7700 
1283.446;0.0054;0.0117;0.9927;0.0000;0.0000;0.0000;0.6482;-0.2637;-53.2507;34.7800 
1283.446;0.0054;0.0117;0.9927;0.0000;0.0000;0.0000;0.6482;-0.2637;-53.2507;34.7800 
1283.446;0.0054;0.0117;0.9927;0.0000;0.0000;0.0000;0.6482;-0.2692;-53.2562;34.8400 
1283.446;0.0054;0.0117;0.9927;0.0000;0.0000;0.0000;0.6482;-0.2692;-53.2562;34.8400 
1283.446;0.0054;0.0117;0.9927;0.0000;0.0000;0.0000;0.6482;-0.2692;-53.2562;34.8400 
1283.446;0.0054;0.0117;0.9927;0.0000;0.0000;0.0000;0.6482;-0.2692;-53.2562;34.8900 
1283.446;0.0054;0.0107;0.9927;0.0000;0.0000;0.0000;0.6482;-0.2692;-53.2562;34.8900 
1283.446;0.0054;0.0107;0.9927;0.0000;0.0000;0.0000;0.6482;-0.2692;-53.2562;34.8500 
1283.446;0.0054;0.0107;0.9927;0.0000;0.0000;0.0000;0.6482;-0.2692;-53.2562;34.8500 
1283.446;0.0054;0.0107;0.9927;0.0000;0.0000;0.0000;0.6482;-0.2692;-53.2562;34.8200 
1283.446;0.0054;0.0107;0.9927;0.0000;0.0000;0.0000;0.6482;-0.2692;-53.2562;34.8200 
1283.446;0.0054;0.0107;0.9927;0.0000;0.0000;0.0000;0.6482;-0.2692;-53.2562;34.8600 
1283.456;0.0054;0.0107;0.9927;0.0000;0.0000;0.0000;0.6482;-0.2692;-53.2562;34.8600 
1283.456;0.0054;0.0107;0.9927;0.0000;0.0000;0.0000;0.6482;-0.2692;-53.2617;34.8100 
1283.466;0.0054;0.0107;0.9932;0.0000;0.0000;0.0000;0.6482;-0.2692;-53.2617;34.8100 
1283.466;0.0054;0.0107;0.9932;0.0000;0.0000;0.0000;0.6482;-0.2692;-53.2617;34.8000 
1283.476;0.0054;0.0107;0.9932;0.0000;0.0000;0.0000;0.6482;-0.2692;-53.2617;34.8000 
1283.476;0.0054;0.0107;0.9932;0.0000;0.0000;0.0000;0.6482;-0.2692;-53.2617;34.8100 
1283.496;0.0054;0.0107;0.9932;0.0000;0.0000;0.0000;0.6482;-0.2692;-53.2672;34.8100 
1283.496;0.0054;0.0107;0.9932;0.0000;0.0000;0.0000;0.6482;-0.2692;-53.2672;34.8100 
1283.516;0.0054;0.0107;0.9932;0.0000;0.0000;0.0000;0.6482;-0.2692;-53.2672;34.8100 
1283.516;0.0054;0.0107;0.9932;0.0000;0.0000;0.0000;0.6482;-0.2692;-53.2672;34.8100 
1283.516;0.0054;0.0112;0.9932;0.0000;0.0000;0.0000;0.6482;-0.2692;-53.2672;34.8100 
1283.516;0.0054;0.0112;0.9932;0.0000;0.0000;0.0000;0.6482;-0.2692;-53.2727;34.8100 
1283.516;0.0054;0.0112;0.9932;0.0000;0.0000;0.0000;0.6482;-0.2692;-53.2727;34.7900 
1283.516;0.0054;0.0112;0.9932;0.0000;0.0000;0.0000;0.6482;-0.2692;-53.2727;34.7900 
1283.536;0.0054;0.0112;0.9932;0.0000;0.0000;0.0000;0.6482;-0.2692;-53.2782;34.9000 
1283.536;0.0054;0.0112;0.9932;0.0000;0.0000;0.0000;0.6482;-0.2692;-53.2782;34.9000 
1283.536;0.0054;0.0112;0.9932;0.0000;0.0000;0.0000;0.6482;-0.2692;-53.2782;34.8200 
1283.536;0.0054;0.0112;0.9932;0.0000;0.0000;0.0000;0.6482;-0.2692;-53.2837;34.8200 
1283.545;0.0054;0.0103;0.9937;0.0000;0.0000;0.0000;0.6482;-0.2692;-53.2837;34.8000 
1283.545;0.0054;0.0103;0.9937;0.0000;0.0000;0.0000;0.6482;-0.2692;-53.2837;34.8000 
1283.635;0.0054;0.0103;0.9937;0.0000;0.0000;0.0000;0.6482;-0.2692;-53.2892;34.8300 
1283.635;0.0054;0.0103;0.9937;0.0000;0.0000;0.0000;0.6482;-0.2692;-53.2892;34.8300 
1283.635;0.0054;0.0103;0.9937;0.0000;0.0000;0.0000;0.6482;-0.2692;-53.2892;34.7900 
1283.646;0.0054;0.0103;0.9937;0.0000;0.0000;0.0000;0.6482;-0.2692;-53.2947;34.7900 
1283.646;0.0054;0.0103;0.9937;0.0000;0.0000;0.0000;0.6482;-0.2692;-53.2947;34.8200 
1283.646;0.0054;0.0103;0.9937;0.0000;0.0000;0.0000;0.6482;-0.2692;-53.2892;34.8200 
1283.646;0.0054;0.0103;0.9937;0.0000;0.0000;0.0000;0.6482;-0.2692;-53.2892;34.8200 
1283.646;0.0054;0.0103;0.9937;0.0000;0.0000;0.0000;0.6482;-0.2692;-53.2892;34.8200 
1283.646;0.0054;0.0103;0.9937;0.0000;0.0000;0.0000;0.6482;-0.2692;-53.2892;34.8200 
1283.646;0.0054;0.0103;0.9937;0.0000;0.0000;0.0000;0.6482;-0.2692;-53.2892;34.7700 
1283.646;0.0054;0.0103;0.9937;0.0000;0.0000;0.0000;0.6482;-0.2692;-53.2892;34.7700 
1283.646;0.0054;0.0103;0.9937;0.0000;0.0000;0.0000;0.6482;-0.2692;-53.2892;34.8200 
1283.646;0.0054;0.0103;0.9937;0.0000;0.0000;0.0000;0.6482;-0.2692;-53.2892;34.8200 
1283.646;0.0054;0.0103;0.9937;0.0000;0.0000;0.0000;0.6427;-0.2692;-53.2892;34.8000 
1283.646;0.0054;0.0117;0.9932;0.0000;0.0000;0.0000;0.6482;-0.2692;-53.2892;34.8000 
1283.646;0.0054;0.0117;0.9932;0.0000;0.0000;0.0000;0.6482;-0.2692;-53.2892;34.8700 
1283.646;0.0054;0.0117;0.9932;0.0000;0.0000;0.0000;0.6482;-0.2692;-53.2892;34.8700 
1283.646;0.0054;0.0117;0.9932;0.0000;0.0000;0.0000;0.6482;-0.2692;-53.2892;34.7800 
1283.646;0.0054;0.0117;0.9932;0.0000;0.0000;0.0000;0.6482;-0.2692;-53.2892;34.7800 
1283.665;0.0054;0.0117;0.9932;0.0000;0.0000;0.0000;0.6482;-0.2692;-53.2892;34.8500 
1283.665;0.0054;0.0117;0.9932;0.0000;0.0000;0.0000;0.6482;-0.2747;-53.2892;34.8500 
1283.665;0.0054;0.0117;0.9932;0.0000;0.0000;0.0000;0.6482;-0.2747;-53.2892;34.8100 
1283.665;0.0049;0.0107;0.9932;0.0000;0.0000;0.0000;0.6482;-0.2747;-53.2947;34.8100 
1283.675;0.0049;0.0107;0.9932;0.0000;0.0000;0.0000;0.6482;-0.2747;-53.2947;34.8100 
1283.675;0.0049;0.0107;0.9932;0.0000;0.0000;0.0000;0.6482;-0.2747;-53.2947;34.8600 
1283.695;0.0049;0.0107;0.9932;0.0000;0.0000;0.0000;0.6482;-0.2747;-53.2947;34.8600 
1283.695;0.0049;0.0107;0.9932;0.0000;0.0000;0.0000;0.6482;-0.2747;-53.2947;34.8400 
1283.715;0.0049;0.0107;0.9932;0.0000;0.0000;0.0000;0.6482;-0.2747;-53.2947;34.8400 
1283.715;0.0049;0.0107;0.9932;0.0000;0.0000;0.0000;0.6482;-0.2747;-53.2947;34.8300 
1283.715;0.0049;0.0107;0.9932;0.0000;0.0000;0.0000;0.6482;-0.2747;-53.2947;34.8300 
1283.715;0.0049;0.0112;0.9932;0.0000;0.0000;0.0000;0.6482;-0.2747;-53.2947;34.8500 
1283.715;0.0049;0.0112;0.9932;0.0000;0.0000;0.0000;0.6482;-0.2747;-53.3002;34.8500 
1283.715;0.0049;0.0112;0.9932;0.0000;0.0000;0.0000;0.6482;-0.2747;-53.3002;34.8400 
1283.725;0.0049;0.0112;0.9932;0.0000;0.0000;0.0000;0.6482;-0.2747;-53.3002;34.8400 
1283.745;0.0049;0.0112;0.9932;0.0000;0.0000;0.0000;0.6482;-0.2747;-53.3002;34.8200 
1283.745;0.0049;0.0112;0.9932;0.0000;0.0000;0.0000;0.6482;-0.2747;-53.3057;34.8200 
1283.835;0.0049;0.0112;0.9932;0.0000;0.0000;0.0000;0.6482;-0.2747;-53.3057;34.8700 
1283.835;0.0049;0.0112;0.9932;0.0000;0.0000;0.0000;0.6482;-0.2747;-53.3057;34.8700 
1283.835;0.0044;0.0122;0.9927;0.0000;0.0000;0.0000;0.6482;-0.2747;-53.3057;34.8300 
1283.835;0.0044;0.0122;0.9927;0.0000;0.0000;0.0000;0.6482;-0.2747;-53.3057;34.8300 
1283.855;0.0044;0.0122;0.9927;0.0000;0.0000;0.0000;0.6482;-0.2747;-53.3057;34.8300 
1283.855;0.0044;0.0122;0.9927;0.0000;0.0000;0.0000;0.6482;-0.2747;-53.3112;34.8100 
1283.855;0.0044;0.0122;0.9927;0.0000;0.0000;0.0000;0.6482;-0.2747;-53.3112;34.8100 
1283.855;0.0044;0.0122;0.9927;0.0000;0.0000;0.0000;0.6482;-0.2747;-53.3112;34.7700 
1283.855;0.0044;0.0122;0.9927;0.0000;0.0000;0.0000;0.6482;-0.2692;-53.3112;34.7700 
1283.855;0.0044;0.0122;0.9927;0.0000;0.0000;0.0000;0.6482;-0.2692;-53.3112;34.8000 
1283.855;0.0044;0.0117;0.9932;0.0000;0.0000;0.0000;0.6482;-0.2692;-53.3112;34.8000 
1283.855;0.0044;0.0117;0.9932;0.0000;0.0000;0.0000;0.6482;-0.2692;-53.3112;34.8300 
1283.855;0.0044;0.0117;0.9932;0.0000;0.0000;0.0000;0.6482;-0.2692;-53.3112;34.8300 
1283.855;0.0044;0.0117;0.9932;0.0000;0.0000;0.0000;0.6482;-0.2692;-53.3057;34.8000 
1283.855;0.0044;0.0117;0.9932;0.0000;0.0000;0.0000;0.6482;-0.2692;-53.3057;34.8000 
1283.855;0.0044;0.0117;0.9932;0.0000;0.0000;0.0000;0.6482;-0.2692;-53.3057;34.8200 
1283.855;0.0044;0.0117;0.9932;0.0000;0.0000;0.0000;0.6482;-0.2692;-53.3057;34.8200 
1283.855;0.0044;0.0117;0.9932;0.0000;0.0000;0.0000;0.6482;-0.2692;-53.3057;34.8500 
1283.855;0.0044;0.0112;0.9932;0.0000;0.0000;0.0000;0.6482;-0.2692;-53.3057;34.8500 
1283.855;0.0044;0.0112;0.9932;0.0000;0.0000;0.0000;0.6482;-0.2692;-53.3057;34.8500 
1283.855;0.0044;0.0112;0.9932;0.0000;0.0000;0.0000;0.6482;-0.2692;-53.3057;34.8100 
1283.855;0.0044;0.0112;0.9932;0.0000;0.0000;0.0000;0.6482;-0.2692;-53.3057;34.8100 
1283.865;0.0044;0.0112;0.9932;0.0000;0.0000;0.0000;0.6482;-0.2692;-53.3057;34.7800 
1283.865;0.0044;0.0112;0.9932;0.0000;0.0000;0.0000;0.6482;-0.2692;-53.3057;34.7800 
1283.865;0.0044;0.0112;0.9932;0.0000;0.0000;0.0000;0.6482;-0.2692;-53.3057;34.8400 
1283.865;0.0044;0.0112;0.9932;0.0000;0.0000;0.0000;0.6482;-0.2692;-53.3057;34.8400 
1283.865;0.0044;0.0122;0.9927;0.0000;0.0000;0.0000;0.6482;-0.2692;-53.3057;34.8100 
1283.865;0.0044;0.0122;0.9927;0.0000;0.0000;0.0000;0.6482;-0.2692;-53.3057;34.8100 
1283.875;0.0044;0.0122;0.9927;0.0000;0.0000;0.0000;0.6482;-0.2692;-53.3057;34.8300 
1283.875;0.0044;0.0122;0.9927;0.0000;0.0000;0.0000;0.6482;-0.2692;-53.3057;34.8300 
1283.885;0.0044;0.0122;0.9927;0.0000;0.0000;0.0000;0.6482;-0.2692;-53.3112;34.7700 
1283.895;0.0044;0.0122;0.9927;0.0000;0.0000;0.0000;0.6482;-0.2692;-53.3112;34.7700 
1283.895;0.0044;0.0122;0.9927;0.0000;0.0000;0.0000;0.6482;-0.2692;-53.3112;34.8200 
1283.915;0.0044;0.0122;0.9927;0.0000;0.0000;0.0000;0.6482;-0.2692;-53.3112;34.8200 
1283.915;0.0044;0.0117;0.9927;0.0000;0.0000;0.0000;0.6482;-0.2692;-53.3167;34.9000 
1283.915;0.0044;0.0117;0.9927;0.0000;0.0000;0.0000;0.6482;-0.2692;-53.3167;34.9000 
1283.915;0.0044;0.0117;0.9927;0.0000;0.0000;0.0000;0.6482;-0.2692;-53.3167;34.9000 
1283.925;0.0044;0.0117;0.9927;0.0000;0.0000;0.0000;0.6482;-0.2692;-53.3167;34.7900 
1283.925;0.0044;0.0117;0.9927;0.0000;0.0000;0.0000;0.6482;-0.2692;-53.3167;34.7900 
1283.935;0.0044;0.0117;0.9927;0.0000;0.0000;0.0000;0.6482;-0.2692;-53.3221;34.9000 
1283.935;0.0044;0.0117;0.9927;0.0000;0.0000;0.0000;0.6482;-0.2692;-53.3221;34.9000 
1283.945;0.0044;0.0117;0.9927;0.0000;0.0000;0.0000;0.6482;-0.2692;-53.3221;34.8100 
1283.945;0.0044;0.0112;0.9932;0.0000;0.0000;0.0000;0.6482;-0.2692;-53.3221;34.8100 
1284.065;0.0044;0.0112;0.9932;0.0000;0.0000;0.0000;0.6482;-0.2692;-53.3221;34.9000 
1284.065;0.0044;0.0112;0.9932;0.0000;0.0000;0.0000;0.6482;-0.2692;-53.3276;34.9000 
1284.075;0.0044;0.0112;0.9932;0.0000;0.0000;0.0000;0.6482;-0.2692;-53.3276;34.8200 
1284.075;0.0044;0.0112;0.9932;0.0000;0.0000;0.0000;0.6482;-0.2692;-53.3276;34.8200 
1284.075;0.0044;0.0112;0.9932;0.0000;0.0000;0.0000;0.6482;-0.2692;-53.3276;34.9000 
1284.075;0.0044;0.0112;0.9932;0.0000;0.0000;0.0000;0.6482;-0.2692;-53.3276;34.9000 
1284.075;0.0044;0.0112;0.9932;0.0000;0.0000;0.0000;0.6482;-0.2692;-53.3276;34.8000 
1284.075;0.0044;0.0117;0.9927;0.0000;0.0000;0.0000;0.6482;-0.2692;-53.3276;34.8000 
1284.075;0.0044;0.0117;0.9927;0.0000;0.0000;0.0000;0.6482;-0.2692;-53.3276;34.8300 
1284.075;0.0044;0.0117;0.9927;0.0000;0.0000;0.0000;0.6482;-0.2692;-53.3276;34.8300 
1284.075;0.0044;0.0117;0.9927;0.0000;0.0000;0.0000;0.6482;-0.2692;-53.3276;34.8300 
1284.075;0.0044;0.0117;0.9927;0.0000;0.0000;0.0000;0.6537;-0.2692;-53.3276;34.8300 
1284.075;0.0044;0.0117;0.9927;0.0000;0.0000;0.0000;0.6537;-0.2692;-53.3276;34.8300 
1284.075;0.0044;0.0117;0.9927;0.0000;0.0000;0.0000;0.6537;-0.2692;-53.3221;34.8500 
1284.075;0.0044;0.0117;0.9927;0.0000;0.0000;0.0000;0.6537;-0.2692;-53.3221;34.8500 
1284.075;0.0044;0.0117;0.9932;0.0000;0.0000;0.0000;0.6537;-0.2692;-53.3221;34.8200 
1284.075;0.0044;0.0117;0.9932;0.0000;0.0000;0.0000;0.6537;-0.2692;-53.3221;34.8200 
1284.075;0.0044;0.0117;0.9932;0.0000;0.0000;0.0000;0.6537;-0.2692;-53.3221;34.8600 
1284.075;0.0044;0.0117;0.9932;0.0000;0.0000;0.0000;0.6537;-0.2692;-53.3221;34.8600 
1284.075;0.0044;0.0117;0.9932;0.0000;0.0000;0.0000;0.6537;-0.2692;-53.3221;34.8700 
1284.075;0.0044;0.0117;0.9932;0.0000;0.0000;0.0000;0.6537;-0.2692;-53.3221;34.8700 
1284.075;0.0044;0.0117;0.9932;0.0000;0.0000;0.0000;0.6537;-0.2692;-53.3221;34.8100 
1284.075;0.0044;0.0117;0.9932;0.0000;0.0000;0.0000;0.6537;-0.2692;-53.3276;34.8100 
1284.075;0.0044;0.0107;0.9932;0.0000;0.0000;0.0000;0.6537;-0.2692;-53.3276;34.8200 
1284.075;0.0044;0.0107;0.9932;0.0000;0.0000;0.0000;0.6537;-0.2692;-53.3276;34.8200 
1284.095;0.0044;0.0107;0.9932;0.0000;0.0000;0.0000;0.6537;-0.2692;-53.3276;34.8000 
1284.095;0.0044;0.0107;0.9932;0.0000;0.0000;0.0000;0.6537;-0.2692;-53.3276;34.8000 
1284.115;0.0044;0.0107;0.9932;0.0000;0.0000;0.0000;0.6537;-0.2692;-53.3276;34.8000 
1284.115;0.0044;0.0107;0.9932;0.0000;0.0000;0.0000;0.6537;-0.2692;-53.3276;34.8500 
1284.115;0.0044;0.0107;0.9932;0.0000;0.0000;0.0000;0.6537;-0.2692;-53.3221;34.8500 
1284.115;0.0044;0.0107;0.9932;0.0000;0.0000;0.0000;0.6537;-0.2692;-53.3221;34.8500 
1284.115;0.0044;0.0112;0.9932;0.0000;0.0000;0.0000;0.6537;-0.2692;-53.3221;34.8500 
1284.115;0.0044;0.0112;0.9932;0.0000;0.0000;0.0000;0.6537;-0.2692;-53.3167;34.8000 
1284.115;0.0044;0.0112;0.9932;0.0000;0.0000;0.0000;0.6537;-0.2692;-53.3167;34.8000 
1284.115;0.0044;0.0112;0.9932;0.0000;0.0000;0.0000;0.6537;-0.2692;-53.3167;34.8500 
1284.135;0.0044;0.0112;0.9932;0.0000;0.0000;0.0000;0.6537;-0.2692;-53.3167;34.8500 
1284.135;0.0044;0.0112;0.9932;0.0000;0.0000;0.0000;0.6537;-0.2692;-53.3167;34.8000 
1284.135;0.0044;0.0112;0.9932;0.0000;0.0000;0.0000;0.6537;-0.2692;-53.3167;34.8000 
1284.135;0.0044;0.0112;0.9932;0.0000;0.0000;0.0000;0.6537;-0.2692;-53.3167;34.8800 
1284.155;0.0049;0.0112;0.9932;0.0000;0.0000;0.0000;0.6537;-0.2692;-53.3167;34.8800 
1284.155;0.0049;0.0112;0.9932;0.0000;0.0000;0.0000;0.6537;-0.2692;-53.3167;34.8700 
1284.155;0.0049;0.0112;0.9932;0.0000;0.0000;0.0000;0.6537;-0.2692;-53.3167;34.8700 
1284.155;0.0049;0.0112;0.9932;0.0000;0.0000;0.0000;0.6537;-0.2692;-53.3167;34.8700 
1284.165;0.0049;0.0112;0.9932;0.0000;0.0000;0.0000;0.6537;-0.2692;-53.3167;34.7500 
1284.165;0.0049;0.0112;0.9932;0.0000;0.0000;0.0000;0.6537;-0.2692;-53.3167;34.7500 
1284.255;0.0049;0.0112;0.9932;0.0000;0.0000;0.0000;0.6537;-0.2692;-53.3167;34.8400 
1284.255;0.0049;0.0112;0.9932;0.0000;0.0000;0.0000;0.6537;-0.2692;-53.3167;34.8400 
1284.265;0.0049;0.0103;0.9932;0.0000;0.0000;0.0000;0.6537;-0.2692;-53.3167;34.8300 
1284.265;0.0049;0.0103;0.9932;0.0000;0.0000;0.0000;0.6537;-0.2692;-53.3167;34.8300 
1284.265;0.0049;0.0103;0.9932;0.0000;0.0000;0.0000;0.6482;-0.2692;-53.3167;34.8500 
1284.265;0.0049;0.0103;0.9932;0.0000;0.0000;0.0000;0.6482;-0.2692;-53.3112;34.8500 
1284.265;0.0049;0.0103;0.9932;0.0000;0.0000;0.0000;0.6482;-0.2692;-53.3112;34.8300 
1284.265;0.0049;0.0103;0.9932;0.0000;0.0000;0.0000;0.6482;-0.2692;-53.3112;34.8300 
1284.265;0.0049;0.0103;0.9932;0.0000;0.0000;0.0000;0.6482;-0.2692;-53.3112;34.8100 
1284.265;0.0049;0.0103;0.9932;0.0000;0.0000;0.0000;0.6482;-0.2692;-53.3112;34.8100 
1284.265;0.0044;0.0112;0.9932;0.0000;0.0000;0.0000;0.6482;-0.2692;-53.3057;34.7800 
1284.265;0.0044;0.0112;0.9932;0.0000;0.0000;0.0000;0.6482;-0.2692;-53.3057;34.7800 
1284.265;0.0044;0.0112;0.9932;0.0000;0.0000;0.0000;0.6482;-0.2692;-53.3057;34.8000 
1284.265;0.0044;0.0112;0.9932;0.0000;0.0000;0.0000;0.6482;-0.2692;-53.3057;34.8000 
1284.265;0.0044;0.0112;0.9932;0.0000;0.0000;0.0000;0.6482;-0.2692;-53.3002;34.8000 
1284.265;0.0044;0.0112;0.9932;0.0000;0.0000;0.0000;0.6482;-0.2692;-53.3002;34.7900 
1284.265;0.0044;0.0112;0.9932;0.0000;0.0000;0.0000;0.6482;-0.2692;-53.3002;34.7900 
1284.265;0.0044;0.0112;0.9932;0.0000;0.0000;0.0000;0.6482;-0.2692;-53.2947;34.8300 
1284.265;0.0049;0.0117;0.9937;0.0000;0.0000;0.0000;0.6482;-0.2692;-53.2947;34.8300 
1284.285;0.0049;0.0117;0.9937;0.0000;0.0000;0.0000;0.6482;-0.2692;-53.2947;34.8100 
1284.285;0.0049;0.0117;0.9937;0.0000;0.0000;0.0000;0.6482;-0.2692;-53.2892;34.8100 
1284.285;0.0049;0.0117;0.9937;0.0000;0.0000;0.0000;0.6482;-0.2692;-53.2892;34.8400 
1284.285;0.0049;0.0117;0.9937;0.0000;0.0000;0.0000;0.6482;-0.2692;-53.2892;34.8400 
1284.295;0.0049;0.0117;0.9937;0.0000;0.0000;0.0000;0.6482;-0.2692;-53.2892;34.7800 
1284.295;0.0049;0.0117;0.9937;0.0000;0.0000;0.0000;0.6482;-0.2692;-53.2892;34.7800 
1284.305;0.0049;0.0117;0.9937;0.0000;0.0000;0.0000;0.6482;-0.2692;-53.2892;34.8500 
1284.305;0.0044;0.0103;0.9941;0.0000;0.0000;0.0000;0.6482;-0.2692;-53.2837;34.8500 
1284.315;0.0044;0.0103;0.9941;0.0000;0.0000;0.0000;0.6482;-0.2692;-53.2892;34.8700 
1284.315;0.0044;0.0103;0.9941;0.0000;0.0000;0.0000;0.6482;-0.2692;-53.2892;34.8700 
1284.325;0.0044;0.0103;0.9941;0.0000;0.0000;0.0000;0.6482;-0.2692;-53.2892;34.8700 
1284.325;0.0044;0.0103;0.9941;0.0000;0.0000;0.0000;0.6482;-0.2692;-53.2892;34.8700 
1284.355;0.0044;0.0103;0.9941;0.0000;0.0000;0.0000;0.6482;-0.2692;-53.2892;34.8700 
1284.355;0.0044;0.0103;0.9941;0.0000;0.0000;0.0000;0.6482;-0.2692;-53.2892;34.8200 
1284.455;0.0044;0.0103;0.9941;0.0000;0.0000;0.0000;0.6482;-0.2692;-53.2947;34.8200 
1284.455;0.0044;0.0112;0.9941;0.0000;0.0000;0.0000;0.6482;-0.2692;-53.2947;34.8100 
1284.455;0.0044;0.0112;0.9941;0.0000;0.0000;0.0000;0.6482;-0.2692;-53.2947;34.8100 
1284.455;0.0044;0.0112;0.9941;0.0000;0.0000;0.0000;0.6482;-0.2692;-53.2947;34.8700 
1284.455;0.0044;0.0112;0.9941;0.0000;0.0000;0.0000;0.6482;-0.2692;-53.2947;34.8700 
1284.455;0.0044;0.0112;0.9941;0.0000;0.0000;0.0000;0.6482;-0.2692;-53.2947;34.8100 
1284.455;0.0044;0.0112;0.9941;0.0000;0.0000;0.0000;0.6482;-0.2692;-53.2947;34.8100 
1284.475;0.0044;0.0112;0.9941;0.0000;0.0000;0.0000;0.6482;-0.2692;-53.2947;34.8100 
1284.475;0.0044;0.0112;0.9941;0.0000;0.0000;0.0000;0.6482;-0.2692;-53.3002;34.8100 
1284.475;0.0044;0.0112;0.9941;0.0000;0.0000;0.0000;0.6482;-0.2692;-53.3002;34.8300 
1284.475;0.0044;0.0112;0.9941;0.0000;0.0000;0.0000;0.6482;-0.2692;-53.3002;34.8300 
1284.475;0.0044;0.0112;0.9941;0.0000;0.0000;0.0000;0.6482;-0.2692;-53.3002;34.8100 
1284.475;0.0044;0.0112;0.9941;0.0000;0.0000;0.0000;0.6482;-0.2692;-53.3002;34.8100 
1284.475;0.0044;0.0112;0.9941;0.0000;0.0000;0.0000;0.6482;-0.2692;-53.3002;34.8200 
1284.475;0.0044;0.0112;0.9941;0.0000;0.0000;0.0000;0.6482;-0.2692;-53.3002;34.8200 
1284.475;0.0044;0.0112;0.9941;0.0000;0.0000;0.0000;0.6482;-0.2692;-53.3002;34.8200 
1284.475;0.0044;0.0112;0.9941;0.0000;0.0000;0.0000;0.6482;-0.2692;-53.3002;34.8200 
1284.475;0.0044;0.0107;0.9937;0.0000;0.0000;0.0000;0.6482;-0.2692;-53.3002;34.8200 
1284.475;0.0044;0.0107;0.9937;0.0000;0.0000;0.0000;0.6482;-0.2692;-53.3002;34.8100 
1284.475;0.0044;0.0107;0.9937;0.0000;0.0000;0.0000;0.6482;-0.2637;-53.2947;34.8100 
1284.475;0.0044;0.0107;0.9937;0.0000;0.0000;0.0000;0.6482;-0.2637;-53.2947;34.8300 
1284.475;0.0044;0.0107;0.9937;0.0000;0.0000;0.0000;0.6482;-0.2637;-53.2947;34.8300 
1284.475;0.0044;0.0107;0.9937;0.0000;0.0000;0.0000;0.6482;-0.2637;-53.2947;34.8100 
1284.475;0.0044;0.0107;0.9937;0.0000;0.0000;0.0000;0.6482;-0.2637;-53.2947;34.8100 
1284.475;0.0044;0.0107;0.9937;0.0000;0.0000;0.0000;0.6482;-0.2637;-53.2947;34.8700 
1284.475;0.0039;0.0112;0.9932;0.0000;0.0000;0.0000;0.6482;-0.2637;-53.2947;34.8700 
1284.475;0.0039;0.0112;0.9932;0.0000;0.0000;0.0000;0.6482;-0.2637;-53.2947;34.8100 
1284.475;0.0039;0.0112;0.9932;0.0000;0.0000;0.0000;0.6482;-0.2637;-53.2947;34.8100 
1284.475;0.0039;0.0112;0.9932;0.0000;0.0000;0.0000;0.6482;-0.2637;-53.2947;34.8400 
1284.495;0.0039;0.0112;0.9932;0.0000;0.0000;0.0000;0.6482;-0.2637;-53.2947;34.8400 
1284.495;0.0039;0.0112;0.9932;0.0000;0.0000;0.0000;0.6482;-0.2637;-53.3002;34.8500 
1284.495;0.0039;0.0112;0.9932;0.0000;0.0000;0.0000;0.6482;-0.2637;-53.3002;34.8500 
1284.495;0.0039;0.0112;0.9932;0.0000;0.0000;0.0000;0.6482;-0.2637;-53.2947;34.8500 
1284.505;0.0049;0.0112;0.9932;0.0000;0.0000;0.0000;0.6482;-0.2637;-53.2947;34.8000 
1284.505;0.0049;0.0112;0.9932;0.0000;0.0000;0.0000;0.6482;-0.2637;-53.2947;34.8000 
1284.515;0.0049;0.0112;0.9932;0.0000;0.0000;0.0000;0.6482;-0.2637;-53.2947;34.8400 
1284.515;0.0049;0.0112;0.9932;0.0000;0.0000;0.0000;0.6482;-0.2637;-53.2947;34.8400 
1284.535;0.0049;0.0112;0.9932;0.0000;0.0000;0.0000;0.6482;-0.2637;-53.2892;34.8000 
1284.535;0.0049;0.0112;0.9932;0.0000;0.0000;0.0000;0.6482;-0.2637;-53.2892;34.8000 
1284.535;0.0049;0.0112;0.9932;0.0000;0.0000;0.0000;0.6482;-0.2637;-53.2892;34.8100 
1284.535;0.0049;0.0112;0.9932;0.0000;0.0000;0.0000;0.6482;-0.2637;-53.2892;34.8100 
1284.545;0.0039;0.0098;0.9927;0.0000;0.0000;0.0000;0.6482;-0.2637;-53.2892;34.8000 
1284.565;0.0039;0.0098;0.9927;0.0000;0.0000;0.0000;0.6482;-0.2637;-53.2892;34.8000 
1284.565;0.0039;0.0098;0.9927;0.0000;0.0000;0.0000;0.6482;-0.2637;-53.2892;34.8100 
1284.655;0.0039;0.0098;0.9927;0.0000;0.0000;0.0000;0.6482;-0.2637;-53.2837;34.8100 
1284.655;0.0039;0.0098;0.9927;0.0000;0.0000;0.0000;0.6482;-0.2637;-53.2837;34.7400 
1284.655;0.0039;0.0098;0.9927;0.0000;0.0000;0.0000;0.6482;-0.2637;-53.2837;34.7400 
1284.655;0.0039;0.0098;0.9927;0.0000;0.0000;0.0000;0.6482;-0.2637;-53.2837;34.7400 
1284.665;0.0039;0.0098;0.9927;0.0000;0.0000;0.0000;0.6482;-0.2637;-53.2782;34.7900 
1284.665;0.0049;0.0107;0.9932;0.0000;0.0000;0.0000;0.6482;-0.2637;-53.2782;34.7900 
1284.665;0.0049;0.0107;0.9932;0.0000;0.0000;0.0000;0.6482;-0.2637;-53.2782;34.8100 
1284.665;0.0049;0.0107;0.9932;0.0000;0.0000;0.0000;0.6482;-0.2637;-53.2837;34.8100 
1284.665;0.0049;0.0107;0.9932;0.0000;0.0000;0.0000;0.6482;-0.2637;-53.2837;34.8100 
1284.665;0.0049;0.0107;0.9932;0.0000;0.0000;0.0000;0.6482;-0.2637;-53.2782;34.8100 
1284.665;0.0049;0.0107;0.9932;0.0000;0.0000;0.0000;0.6482;-0.2637;-53.2782;34.8800 
1284.665;0.0049;0.0107;0.9932;0.0000;0.0000;0.0000;0.6482;-0.2637;-53.2782;34.8800 
1284.665;0.0049;0.0107;0.9932;0.0000;0.0000;0.0000;0.6482;-0.2637;-53.2782;34.7900 
1284.665;0.0029;0.0107;0.9922;0.0000;0.0000;0.0000;0.6482;-0.2637;-53.2782;34.7900 
1284.665;0.0029;0.0107;0.9922;0.0000;0.0000;0.0000;0.6482;-0.2637;-53.2837;34.8300 
1284.665;0.0029;0.0107;0.9922;0.0000;0.0000;0.0000;0.6482;-0.2637;-53.2837;34.8300 
1284.665;0.0029;0.0107;0.9922;0.0000;0.0000;0.0000;0.6482;-0.2637;-53.2837;34.7800 
1284.665;0.0029;0.0107;0.9922;0.0000;0.0000;0.0000;0.6482;-0.2637;-53.2837;34.7800 
1284.665;0.0029;0.0107;0.9922;0.0000;0.0000;0.0000;0.6482;-0.2637;-53.2837;34.7600 
1284.665;0.0029;0.0107;0.9922;0.0000;0.0000;0.0000;0.6482;-0.2637;-53.2892;34.7600 
1284.665;0.0029;0.0107;0.9922;0.0000;0.0000;0.0000;0.6482;-0.2637;-53.2892;34.7600 
1284.665;-0.1226;0.0254;1.0278;0.0000;0.0000;0.0000;0.6482;-0.2417;-53.2892;34.7700 
1284.685;-0.1226;0.0254;1.0278;0.0000;0.0000;0.0000;0.6482;-0.2197;-53.2892;34.7700 
1284.695;-0.1226;0.0254;1.0278;0.0000;0.0000;0.0000;0.6537;-0.1978;-53.2892;34.8100 
1284.695;-0.1226;0.0254;1.0278;0.0000;0.0000;0.0000;0.6537;-0.1758;-53.2892;34.8100 
1284.695;-0.1226;0.0254;1.0278;0.0000;0.0000;0.0000;0.6592;-0.1593;-53.2892;34.8100 
1284.695;-0.1226;0.0254;1.0278;0.0000;0.0000;0.0000;0.6592;-0.1373;-53.2837;34.8100 
1284.695;-0.1226;0.0254;1.0278;0.0000;0.0000;0.0000;0.6647;-0.1154;-53.2837;34.8300 
1284.695;-0.1226;0.0254;1.0278;0.0000;0.0000;0.0000;0.6647;-0.0934;-53.2837;34.8300 
1284.705;-0.5308;0.0552;1.0356;0.0000;0.4883;0.0000;0.6702;-0.0110;-53.2782;34.7800 
1284.705;-0.5308;0.0552;1.0356;0.0000;0.4883;0.0000;0.6757;0.0659;-53.2727;34.7800 
1284.725;-0.5308;0.0552;1.0356;0.0000;0.4883;0.0000;0.6812;0.1483;-53.2617;34.8200 
1284.725;-0.5308;0.0552;1.0356;0.0000;0.4883;0.0000;0.6812;0.2307;-53.2562;34.8200 
1284.725;-0.5308;0.0552;1.0356;0.0000;0.4883;0.0000;0.6866;0.3131;-53.2507;34.8800 
1284.725;-0.5308;0.0552;1.0356;0.0000;0.4883;0.0000;0.6921;0.3955;-53.2397;34.8800 
1284.735;-0.5308;0.0552;1.0356;0.0000;0.4883;0.0000;0.6976;0.4779;-53.2343;34.8600 
1284.735;-0.5308;0.0552;1.0356;0.0000;0.4883;0.0000;0.7031;0.5603;-53.2233;34.8600 
1284.745;-1.0415;0.1162;0.9937;-0.0610;2.3193;0.0000;0.7086;0.7086;-53.2013;34.8600 
1284.745;-1.0415;0.1162;0.9937;-0.0610;2.3193;0.0000;0.7086;0.8514;-53.1793;34.8200 
1284.755;-1.0415;0.1162;0.9937;-0.0610;2.3193;0.0000;0.7141;0.9943;-53.1573;34.8200 
1284.755;-1.0415;0.1162;0.9937;-0.0610;2.3193;0.0000;0.7196;1.1426;-53.1354;34.8800 
1284.765;-1.0415;0.1162;0.9937;-0.0610;2.3193;0.0000;0.7196;1.2854;-53.1134;34.8800 
1284.765;-1.0415;0.1162;0.9937;-0.0610;2.3193;0.0000;0.7251;1.4282;-53.0914;34.8300 
1284.855;-1.0415;0.1162;0.9937;-0.0610;2.3193;0.0000;0.7306;1.5710;-53.0695;34.8300 
1284.855;-1.0415;0.1162;0.9937;-0.0610;2.3193;0.0000;0.7306;1.7139;-53.0420;34.7700 
1284.865;-1.7349;0.1782;0.9336;-0.1831;4.4556;0.0610;0.7196;1.9061;-52.9980;34.7700 
1284.865;-1.7349;0.1782;0.9336;-0.1831;4.4556;0.0610;0.7086;2.1039;-52.9486;34.8400 
1284.865;-1.7349;0.1782;0.9336;-0.1831;4.4556;0.0610;0.7031;2.2961;-52.9047;34.8400 
1284.865;-1.7349;0.1782;0.9336;-0.1831;4.4556;0.0610;0.6921;2.4884;-52.8607;34.8500 
1284.865;-1.7349;0.1782;0.9336;-0.1831;4.4556;0.0610;0.6812;2.6807;-52.8113;34.8500 
1284.865;-1.7349;0.1782;0.9336;-0.1831;4.4556;0.0610;0.6702;2.8729;-52.7618;34.8600 
1284.865;-1.7349;0.1782;0.9336;-0.1831;4.4556;0.0610;0.6592;3.0597;-52.7179;34.8600 
1284.865;-1.7349;0.1782;0.9336;-0.1831;4.4556;0.0610;0.6482;3.2520;-52.6685;34.8600 
1284.865;-2.2202;0.1987;0.9092;-0.6104;5.3101;-0.3662;0.6207;3.4607;-52.6080;34.8600 
1284.865;-2.2202;0.1987;0.9092;-0.6104;5.3101;-0.3662;0.5933;3.6694;-52.5476;34.8600 
1284.865;-2.2202;0.1987;0.9092;-0.6104;5.3101;-0.3662;0.5658;3.8782;-52.4927;34.8200 
1284.865;-2.2202;0.1987;0.9092;-0.6104;5.3101;-0.3662;0.5383;4.0814;-52.4323;34.8200 
1284.865;-2.2202;0.1987;0.9092;-0.6104;5.3101;-0.3662;0.5109;4.2902;-52.3718;34.7900 
1284.865;-2.2202;0.1987;0.9092;-0.6104;5.3101;-0.3662;0.4889;4.4934;-52.3114;34.7900 
1284.865;-2.2202;0.1987;0.9092;-0.6104;5.3101;-0.3662;0.4614;4.7021;-52.2510;34.8100 
1284.875;-2.2202;0.1987;0.9092;-0.6104;5.3101;-0.3662;0.4340;4.9054;-52.1906;34.8100 
1284.875;-2.3799;0.1953;0.8550;-0.9155;3.9063;-1.4038;0.3955;5.1086;-52.1301;34.8400 
1284.875;-2.3799;0.1953;0.8550;-0.9155;3.9063;-1.4038;0.3625;5.3119;-52.0642;34.8400 
1284.875;-2.3799;0.1953;0.8550;-0.9155;3.9063;-1.4038;0.3241;5.5096;-52.0038;34.8400 
1284.885;-2.3799;0.1953;0.8550;-0.9155;3.9063;-1.4038;0.2856;5.7129;-51.9379;34.8400 
1284.885;-2.3799;0.1953;0.8550;-0.9155;3.9063;-1.4038;0.2472;5.9161;-51.8719;34.8400 
1284.895;-2.3799;0.1953;0.8550;-0.9155;3.9063;-1.4038;0.2142;6.1139;-51.8115;34.8400 
1284.895;-2.3799;0.1953;0.8550;-0.9155;3.9063;-1.4038;0.1758;6.3116;-51.7456;34.8200 
1284.915;-2.3799;0.1953;0.8550;-0.9155;3.9063;-1.4038;0.1373;6.5094;-51.6797;34.8200 
1284.915;-2.0972;0.1284;0.8076;-1.1597;-0.1831;-2.0752;0.0989;6.6852;-51.6248;34.8200 
1284.935;-2.0972;0.1284;0.8076;-1.1597;-0.1831;-2.0752;0.0549;6.8610;-51.5643;34.8200 
1284.935;-2.0972;0.1284;0.8076;-1.1597;-0.1831;-2.0752;0.0165;7.0313;-51.5039;34.8200 
1284.935;-2.0972;0.1284;0.8076;-1.1597;-0.1831;-2.0752;-0.0165;7.2070;-51.4435;34.9200 
1284.935;-2.0972;0.1284;0.8076;-1.1597;-0.1831;-2.0752;-0.0604;7.3773;-51.3885;34.9200 
1284.935;-2.0972;0.1284;0.8076;-1.1597;-0.1831;-2.0752;-0.0989;7.5531;-51.3281;34.8200 
1284.935;-2.0972;0.1284;0.8076;-1.1597;-0.1831;-2.0752;-0.1373;7.7234;-51.2677;34.8200 
1284.945;-2.0972;0.1284;0.8076;-1.1597;-0.1831;-2.0752;-0.1758;7.8937;-51.2128;34.8400 
1284.945;-1.5474;0.0571;0.6880;-1.4648;-6.4697;-1.1597;-0.2142;8.0255;-51.1578;34.8400 
1284.955;-1.5474;0.0571;0.6880;-1.4648;-6.4697;-1.1597;-0.2527;8.1573;-51.1029;34.8400 
1284.955;-1.5474;0.0571;0.6880;-1.4648;-6.4697;-1.1597;-0.2856;8.2892;-51.0480;34.8400 
1284.975;-1.5474;0.0571;0.6880;-1.4648;-6.4697;-1.1597;-0.3241;8.4210;-50.9930;34.8100 
1284.975;-1.5474;0.0571;0.6880;-1.4648;-6.4697;-1.1597;-0.3625;8.5529;-50.9326;34.8100 
1284.985;-1.5474;0.0571;0.6880;-1.4648;-6.4697;-1.1597;-0.4010;8.6847;-50.8777;34.8300 
1284.985;-1.5474;0.0571;0.6880;-1.4648;-6.4697;-1.1597;-0.4395;8.8110;-50.8173;34.8300 
1284.985;-0.8252;-0.0083;0.4717;-1.7090;-13.0005;2.1362;-0.4779;8.8934;-50.7568;34.7900 
1284.985;-0.8252;-0.0083;0.4717;-1.7090;-13.0005;2.1362;-0.5109;8.9758;-50.6964;34.7900 
1284.995;-0.8252;-0.0083;0.4717;-1.7090;-13.0005;2.1362;-0.5438;9.0582;-50.6360;34.7900 
1285.005;-0.8252;-0.0083;0.4717;-1.7090;-13.0005;2.1362;-0.5768;9.1406;-50.5756;34.8400 
1285.005;-0.8252;-0.0083;0.4717;-1.7090;-13.0005;2.1362;-0.6097;9.2230;-50.5151;34.8400 
1285.015;-0.8252;-0.0083;0.4717;-1.7090;-13.0005;2.1362;-0.6427;9.3054;-50.4547;34.8100 
1285.015;-0.8252;-0.0083;0.4717;-1.7090;-13.0005;2.1362;-0.6757;9.3823;-50.3943;34.8100 
1285.025;-0.8252;-0.0083;0.4717;-1.7090;-13.0005;2.1362;-0.7086;9.4647;-50.3339;34.8200 
1285.025;-0.1943;-0.0571;0.2607;-2.1362;-18.7988;7.8735;-0.7471;9.4482;-50.2844;34.8200 
1285.135;-0.1943;-0.0571;0.2607;-2.1362;-18.7988;7.8735;-0.7800;9.4373;-50.2295;34.8100 
1285.135;-0.1943;-0.0571;0.2607;-2.1362;-18.7988;7.8735;-0.8185;9.4208;-50.1691;34.8100 
1285.145;-0.1943;-0.0571;0.2607;-2.1362;-18.7988;7.8735;-0.8569;9.4043;-50.1141;34.8800 
1285.145;-0.1943;-0.0571;0.2607;-2.1362;-18.7988;7.8735;-0.8954;9.3878;-50.0592;34.8800 
1285.145;-0.1943;-0.0571;0.2607;-2.1362;-18.7988;7.8735;-0.9338;9.3768;-49.9988;34.8100 
1285.145;-0.1943;-0.0571;0.2607;-2.1362;-18.7988;7.8735;-0.9723;9.3604;-49.9438;34.8100 
1285.145;-0.1943;-0.0571;0.2607;-2.1362;-18.7988;7.8735;-1.0107;9.3439;-49.8834;34.7800 
1285.145;0.2339;-0.0864;0.1099;-2.7466;-23.3154;14.7095;-1.0712;9.0308;-49.8065;34.7800 
1285.145;0.2339;-0.0864;0.1099;-2.7466;-23.3154;14.7095;-1.1316;8.7122;-49.7241;34.8300 
1285.145;0.2339;-0.0864;0.1099;-2.7466;-23.3154;14.7095;-1.1920;8.3990;-49.6472;34.8300 
1285.145;0.2339;-0.0864;0.1099;-2.7466;-23.3154;14.7095;-1.2524;8.0859;-49.5648;34.8300 
1285.145;0.2339;-0.0864;0.1099;-2.7466;-23.3154;14.7095;-1.3129;7.7783;-49.4824;34.8500 
1285.145;0.2339;-0.0864;0.1099;-2.7466;-23.3154;14.7095;-1.3733;7.4652;-49.4000;34.8500 
1285.145;0.2339;-0.0864;0.1099;-2.7466;-23.3154;14.7095;-1.4337;7.1521;-49.3176;34.8700 
1285.145;0.2339;-0.0864;0.1099;-2.7466;-23.3154;14.7095;-1.4941;6.8445;-49.2297;34.8700 
1285.145;0.4487;-0.0996;0.0337;-3.2959;-25.6348;21.3623;-1.4667;6.4709;-49.0375;34.7900 
1285.145;0.4487;-0.0996;0.0337;-3.2959;-25.6348;21.3623;-1.4447;6.1029;-48.8452;34.7900 
1285.145;0.4487;-0.0996;0.0337;-3.2959;-25.6348;21.3623;-1.4227;5.7294;-48.6584;34.8300 
1285.145;0.4487;-0.0996;0.0337;-3.2959;-25.6348;21.3623;-1.4063;5.3613;-48.4717;34.8300 
1285.145;0.4487;-0.0996;0.0337;-3.2959;-25.6348;21.3623;-1.3843;4.9933;-48.2849;34.8100 
1285.145;0.4487;-0.0996;0.0337;-3.2959;-25.6348;21.3623;-1.3678;4.6252;-48.0981;34.8100 
1285.145;0.4487;-0.0996;0.0337;-3.2959;-25.6348;21.3623;-1.3568;4.2572;-47.9114;34.8500 
1285.165;0.4487;-0.0996;0.0337;-3.2959;-25.6348;21.3623;-1.3458;3.8892;-47.7301;34.8500 
1285.165;0.5010;-0.1030;0.0234;-3.7842;-25.2686;27.7100;-1.3239;3.5211;-47.5049;34.8200 
1285.175;0.5010;-0.1030;0.0234;-3.7842;-25.2686;27.7100;-1.3019;3.1586;-47.2852;34.8200 
1285.175;0.5010;-0.1030;0.0234;-3.7842;-25.2686;27.7100;-1.2799;2.7905;-47.0599;34.8200 
1285.195;0.5010;-0.1030;0.0234;-3.7842;-25.2686;27.7100;-1.2634;2.4280;-46.8402;34.8200 
1285.205;0.5010;-0.1030;0.0234;-3.7842;-25.2686;27.7100;-1.2415;2.0654;-46.6150;34.8200 
1285.205;0.5010;-0.1030;0.0234;-3.7842;-25.2686;27.7100;-1.2305;1.7029;-46.3953;34.7900 
1285.215;0.5010;-0.1030;0.0234;-3.7842;-25.2686;27.7100;-1.2140;1.3403;-46.1755;34.7900 
1285.215;0.5010;-0.1030;0.0234;-3.7842;-25.2686;27.7100;-1.1975;0.9778;-45.9558;34.7900 
1285.215;0.4600;-0.1069;0.0654;-4.6387;-22.5830;34.1187;-1.2195;0.6427;-45.7196;34.7900 
1285.215;0.4600;-0.1069;0.0654;-4.6387;-22.5830;34.1187;-1.2360;0.3076;-45.4889;34.8400 
1285.235;0.4600;-0.1069;0.0654;-4.6387;-22.5830;34.1187;-1.2524;-0.0220;-45.2527;34.8400 
1285.235;0.4600;-0.1069;0.0654;-4.6387;-22.5830;34.1187;-1.2744;-0.3571;-45.0165;34.8100 
1285.235;0.4600;-0.1069;0.0654;-4.6387;-22.5830;34.1187;-1.2909;-0.6921;-44.7803;34.8100 
1285.235;0.4600;-0.1069;0.0654;-4.6387;-22.5830;34.1187;-1.3129;-1.0217;-44.5386;34.8100 
1285.235;0.4600;-0.1069;0.0654;-4.6387;-22.5830;34.1187;-1.3348;-1.3513;-44.3024;34.8100 
1285.235;0.4600;-0.1069;0.0654;-4.6387;-22.5830;34.1187;-1.3568;-1.6864;-44.0662;34.8300 
1285.245;0.3643;-0.2148;0.5049;-5.0659;-16.6626;41.0767;-1.4447;-1.8567;-43.8574;34.8300 
1285.245;0.3643;-0.2148;0.5049;-5.0659;-16.6626;41.0767;-1.5326;-2.0325;-43.6487;34.8100 
1285.245;0.3643;-0.2148;0.5049;-5.0659;-16.6626;41.0767;-1.6205;-2.2028;-43.4399;34.8100 
1285.245;0.3643;-0.2148;0.5049;-5.0659;-16.6626;41.0767;-1.7084;-2.3785;-43.2312;34.8700 
1285.365;0.3643;-0.2148;0.5049;-5.0659;-16.6626;41.0767;-1.8018;-2.5488;-43.0225;34.8700 
1285.365;0.3643;-0.2148;0.5049;-5.0659;-16.6626;41.0767;-1.8896;-2.7191;-42.8137;34.8700 
1285.375;0.3643;-0.2148;0.5049;-5.0659;-16.6626;41.0767;-1.9775;-2.8894;-42.6050;34.8200 
1285.375;0.3643;-0.2148;0.5049;-5.0659;-16.6626;41.0767;-2.0709;-3.0542;-42.3907;34.8200 
1285.375;0.4048;-0.1792;0.7539;-3.0518;-8.3618;47.6074;-2.1313;-3.1641;-42.1545;34.8200 
1285.375;0.4048;-0.1792;0.7539;-3.0518;-8.3618;47.6074;-2.1863;-3.2684;-41.9128;34.8200 
1285.375;0.4048;-0.1792;0.7539;-3.0518;-8.3618;47.6074;-2.2467;-3.3728;-41.6766;34.8100 
1285.375;0.4048;-0.1792;0.7539;-3.0518;-8.3618;47.6074;-2.3071;-3.4772;-41.4349;34.8100 
1285.375;0.4048;-0.1792;0.7539;-3.0518;-8.3618;47.6074;-2.3676;-3.5815;-41.1987;34.8300 
1285.375;0.4048;-0.1792;0.7539;-3.0518;-8.3618;47.6074;-2.4280;-3.6859;-40.9625;34.8300 
1285.375;0.4048;-0.1792;0.7539;-3.0518;-8.3618;47.6074;-2.4939;-3.7848;-40.7263;34.8700 
1285.375;0.4048;-0.1792;0.7539;-3.0518;-8.3618;47.6074;-2.5543;-3.8892;-40.4846;34.8700 
1285.405;0.3545;-0.2466;1.1255;0.9766;-0.9155;52.3682;-2.5983;-3.9221;-40.2319;34.8200 
1285.405;0.3545;-0.2466;1.1255;0.9766;-0.9155;52.3682;-2.6367;-3.9551;-39.9738;34.8200 
1285.414;0.3545;-0.2466;1.1255;0.9766;-0.9155;52.3682;-2.6807;-3.9825;-39.7156;34.8400 
1285.414;0.3545;-0.2466;1.1255;0.9766;-0.9155;52.3682;-2.7246;-4.0155;-39.4574;34.8400 
1285.514;0.3545;-0.2466;1.1255;0.9766;-0.9155;52.3682;-2.7631;-4.0485;-39.2047;34.8400 
1285.514;0.3545;-0.2466;1.1255;0.9766;-0.9155;52.3682;-2.8070;-4.0759;-38.9465;34.7700 
1285.534;0.3545;-0.2466;1.1255;0.9766;-0.9155;52.3682;-2.8455;-4.1089;-38.6829;34.7700 
1285.534;0.3545;-0.2466;1.1255;0.9766;-0.9155;52.3682;-2.8894;-4.1364;-38.4302;34.8400 
1285.534;0.5073;-0.2266;1.2856;4.4556;5.0659;55.2979;-2.9059;-4.1528;-38.1555;34.8400 
1285.534;0.5073;-0.2266;1.2856;4.4556;5.0659;55.2979;-2.9279;-4.1638;-37.8864;34.7800 
1285.534;0.5073;-0.2266;1.2856;4.4556;5.0659;55.2979;-2.9443;-4.1748;-37.6117;34.7800 
1285.534;0.5073;-0.2266;1.2856;4.4556;5.0659;55.2979;-2.9663;-4.1858;-37.3425;34.8100 
1285.534;0.5073;-0.2266;1.2856;4.4556;5.0659;55.2979;-2.9828;-4.1968;-37.0679;34.8100 
1285.534;0.5073;-0.2266;1.2856;4.4556;5.0659;55.2979;-2.9993;-4.2078;-36.7987;34.7900 
1285.534;0.5073;-0.2266;1.2856;4.4556;5.0659;55.2979;-3.0212;-4.2188;-36.5240;34.7900 
1285.554;0.5073;-0.2266;1.2856;4.4556;5.0659;55.2979;-3.0377;-4.2297;-36.2549;34.8600 
1285.554;0.5249;-0.1743;1.2461;6.2866;9.0942;56.0913;-3.0432;-4.2242;-35.9747;34.8600 
1285.574;0.5249;-0.1743;1.2461;6.2866;9.0942;56.0913;-3.0432;-4.2188;-35.7001;34.7800 
1285.574;0.5249;-0.1743;1.2461;6.2866;9.0942;56.0913;-3.0487;-4.2133;-35.4254;34.7800 
1285.584;0.5249;-0.1743;1.2461;6.2866;9.0942;56.0913;-3.0487;-4.2078;-35.1508;34.8700 
1285.584;0.5249;-0.1743;1.2461;6.2866;9.0942;56.0913;-3.0542;-4.2023;-34.8706;34.8700 
1285.594;0.5249;-0.1743;1.2461;6.2866;9.0942;56.0913;-3.0542;-4.1968;-34.5959;34.8700 
1285.594;0.5249;-0.1743;1.2461;6.2866;9.0942;56.0913;-3.0597;-4.1968;-34.3213;34.8300 
1285.724;0.5249;-0.1743;1.2461;6.2866;9.0942;56.0913;-3.0652;-4.1913;-34.0466;34.8300 
1285.724;0.5557;-0.1875;1.1729;5.3711;11.0474;55.6030;-3.0762;-4.1803;-33.7720;34.8300 
1285.744;0.5557;-0.1875;1.1729;5.3711;11.0474;55.6030;-3.0872;-4.1748;-33.5028;34.8300 
1285.744;0.5557;-0.1875;1.1729;5.3711;11.0474;55.6030;-3.0927;-4.1638;-33.2281;34.8000 
1285.744;0.5557;-0.1875;1.1729;5.3711;11.0474;55.6030;-3.1036;-4.1583;-32.9590;34.8000 
1285.744;0.5557;-0.1875;1.1729;5.3711;11.0474;55.6030;-3.1146;-4.1528;-32.6843;34.7900 
1285.744;0.5557;-0.1875;1.1729;5.3711;11.0474;55.6030;-3.1256;-4.1418;-32.4097;34.7900 
1285.744;0.5557;-0.1875;1.1729;5.3711;11.0474;55.6030;-3.1366;-4.1364;-32.1405;34.8700 
1285.744;0.5557;-0.1875;1.1729;5.3711;11.0474;55.6030;-3.1476;-4.1254;-31.8658;34.8700 
1285.744;0.5342;-0.1836;1.1440;2.2583;12.2070;54.7485;-3.1696;-4.1144;-31.5967;34.8100 
1285.754;0.5342;-0.1836;1.1440;2.2583;12.2070;54.7485;-3.1970;-4.0979;-31.3330;34.8100 
1285.754;0.5342;-0.1836;1.1440;2.2583;12.2070;54.7485;-3.2190;-4.0869;-31.0638;34.8800 
1285.774;0.5342;-0.1836;1.1440;2.2583;12.2070;54.7485;-3.2465;-4.0704;-30.7947;34.8800 
1285.774;0.5342;-0.1836;1.1440;2.2583;12.2070;54.7485;-3.2684;-4.0540;-30.5255;34.8200 
1285.784;0.5342;-0.1836;1.1440;2.2583;12.2070;54.7485;-3.2959;-4.0430;-30.2618;34.8200 
1285.784;0.5342;-0.1836;1.1440;2.2583;12.2070;54.7485;-3.3179;-4.0265;-29.9927;34.8200 
1285.794;0.5342;-0.1836;1.1440;2.2583;12.2070;54.7485;-3.3453;-4.0100;-29.7235;34.8500 
1285.794;0.5166;-0.1997;1.0884;0.2441;12.2070;53.3447;-3.3838;-3.9990;-29.4598;34.8500 
1285.804;0.5166;-0.1997;1.0884;0.2441;12.2070;53.3447;-3.4167;-3.9825;-29.2017;34.8700 
1285.814;0.5166;-0.1997;1.0884;0.2441;12.2070;53.3447;-3.4552;-3.9716;-28.9380;34.8700 
1285.814;0.5166;-0.1997;1.0884;0.2441;12.2070;53.3447;-3.4937;-3.9551;-28.6798;34.8800 
1285.824;0.5166;-0.1997;1.0884;0.2441;12.2070;53.3447;-3.5266;-3.9441;-28.4216;34.8800 
1285.824;0.5166;-0.1997;1.0884;0.2441;12.2070;53.3447;-3.5651;-3.9276;-28.1580;34.8700 
1285.944;0.5166;-0.1997;1.0884;0.2441;12.2070;53.3447;-3.6035;-3.9111;-27.8998;34.8700 
1285.944;0.5166;-0.1997;1.0884;0.2441;12.2070;53.3447;-3.6365;-3.9001;-27.6361;34.7800 
1285.944;0.5352;-0.2388;1.0356;-0.2441;9.7656;51.0864;-3.6804;-3.9001;-27.3889;34.7800 
1285.944;0.5352;-0.2388;1.0356;-0.2441;9.7656;51.0864;-3.7244;-3.9056;-27.1362;34.7900 
1285.954;0.5352;-0.2388;1.0356;-0.2441;9.7656;51.0864;-3.7683;-3.9056;-26.8835;34.7900 
1285.954;0.5352;-0.2388;1.0356;-0.2441;9.7656;51.0864;-3.8123;-3.9111;-26.6364;34.8800 
1285.954;0.5352;-0.2388;1.0356;-0.2441;9.7656;51.0864;-3.8562;-3.9111;-26.3837;34.8800 
1285.954;0.5352;-0.2388;1.0356;-0.2441;9.7656;51.0864;-3.9001;-3.9166;-26.1365;34.8100 
1285.954;0.5352;-0.2388;1.0356;-0.2441;9.7656;51.0864;-3.9441;-3.9166;-25.8893;34.8100 
1285.954;0.5352;-0.2388;1.0356;-0.2441;9.7656;51.0864;-3.9880;-3.9166;-25.6366;34.8100 
1285.954;0.5620;-0.2700;0.9951;-0.1831;5.5542;47.8516;-4.0375;-3.9496;-25.4004;34.8100 
1285.954;0.5620;-0.2700;0.9951;-0.1831;5.5542;47.8516;-4.0869;-3.9771;-25.1642;34.8100 
1285.954;0.5620;-0.2700;0.9951;-0.1831;5.5542;47.8516;-4.1364;-4.0045;-24.9280;34.8100 
1285.954;0.5620;-0.2700;0.9951;-0.1831;5.5542;47.8516;-4.1803;-4.0375;-24.6918;34.8100 
1285.954;0.5620;-0.2700;0.9951;-0.1831;5.5542;47.8516;-4.2297;-4.0649;-24.4611;34.7900 
1285.954;0.5620;-0.2700;0.9951;-0.1831;5.5542;47.8516;-4.2792;-4.0924;-24.2249;34.7900 
1285.954;0.5620;-0.2700;0.9951;-0.1831;5.5542;47.8516;-4.3286;-4.1199;-23.9886;34.8700 
1285.954;0.5620;-0.2700;0.9951;-0.1831;5.5542;47.8516;-4.3726;-4.1473;-23.7524;34.8700 
1285.954;0.5864;-0.2900;0.9746;0.1831;1.5869;43.7622;-4.4220;-4.1968;-23.5382;34.7900 
1285.954;0.5864;-0.2900;0.9746;0.1831;1.5869;43.7622;-4.4714;-4.2517;-23.3185;34.7900 
1285.954;0.5864;-0.2900;0.9746;0.1831;1.5869;43.7622;-4.5209;-4.3011;-23.0988;34.8400 
1285.954;0.5864;-0.2900;0.9746;0.1831;1.5869;43.7622;-4.5648;-4.3561;-22.8845;34.8400 
1285.954;0.5864;-0.2900;0.9746;0.1831;1.5869;43.7622;-4.6143;-4.4055;-22.6703;34.8600 
1285.954;0.5864;-0.2900;0.9746;0.1831;1.5869;43.7622;-4.6637;-4.4550;-22.4506;34.8600 
1285.954;0.5864;-0.2900;0.9746;0.1831;1.5869;43.7622;-4.7131;-4.5044;-22.2363;34.8600 
1285.954;0.5864;-0.2900;0.9746;0.1831;1.5869;43.7622;-4.7626;-4.5593;-22.0221;34.8600 
1285.984;0.5605;-0.2817;0.9668;0.5493;-1.1597;39.0015;-4.8065;-4.6198;-21.8243;34.8600 
1285.984;0.5605;-0.2817;0.9668;0.5493;-1.1597;39.0015;-4.8505;-4.6802;-21.6321;34.8300 
1285.984;0.5605;-0.2817;0.9668;0.5493;-1.1597;39.0015;-4.8944;-4.7461;-21.4398;34.8300 
1285.994;0.5605;-0.2817;0.9668;0.5493;-1.1597;39.0015;-4.9384;-4.8065;-21.2531;34.8000 
1285.994;0.5605;-0.2817;0.9668;0.5493;-1.1597;39.0015;-4.9878;-4.8669;-21.0608;34.8000 
1285.994;0.5605;-0.2817;0.9668;0.5493;-1.1597;39.0015;-5.0317;-4.9274;-20.8685;34.8700 
1285.994;0.5605;-0.2817;0.9668;0.5493;-1.1597;39.0015;-5.0757;-4.9878;-20.6763;34.8700 
1286.014;0.5605;-0.2817;0.9668;0.5493;-1.1597;39.0015;-5.1251;-5.0482;-20.4840;34.8100 
1286.014;0.5142;-0.2632;0.9707;0.7324;-2.3804;33.8745;-5.1636;-5.1086;-20.3192;34.8100 
1286.014;0.5142;-0.2632;0.9707;0.7324;-2.3804;33.8745;-5.2020;-5.1746;-20.1544;34.7900 
1286.014;0.5142;-0.2632;0.9707;0.7324;-2.3804;33.8745;-5.2460;-5.2350;-19.9951;34.7900 
1286.014;0.5142;-0.2632;0.9707;0.7324;-2.3804;33.8745;-5.2844;-5.2954;-19.8303;34.8200 
1286.014;0.5142;-0.2632;0.9707;0.7324;-2.3804;33.8745;-5.3284;-5.3558;-19.6655;34.8200 
1286.014;0.5142;-0.2632;0.9707;0.7324;-2.3804;33.8745;-5.3668;-5.4163;-19.5062;34.8100 
1286.014;0.5142;-0.2632;0.9707;0.7324;-2.3804;33.8745;-5.4108;-5.4767;-19.3469;34.8100 
1286.034;0.5142;-0.2632;0.9707;0.7324;-2.3804;33.8745;-5.4492;-5.5371;-19.1821;34.8100 
1286.034;0.4736;-0.2520;0.9780;0.6104;-2.3804;28.3203;-5.4877;-5.5920;-19.0503;34.8700 
1286.034;0.4736;-0.2520;0.9780;0.6104;-2.3804;28.3203;-5.5261;-5.6470;-18.9185;34.8700 
1286.034;0.4736;-0.2520;0.9780;0.6104;-2.3804;28.3203;-5.5646;-5.7019;-18.7811;34.8400 
1286.034;0.4736;-0.2520;0.9780;0.6104;-2.3804;28.3203;-5.6030;-5.7623;-18.6493;34.8400 
1286.034;0.4736;-0.2520;0.9780;0.6104;-2.3804;28.3203;-5.6415;-5.8173;-18.5175;34.8700 
1286.034;0.4736;-0.2520;0.9780;0.6104;-2.3804;28.3203;-5.6799;-5.8722;-18.3856;34.8700 
1286.034;0.4736;-0.2520;0.9780;0.6104;-2.3804;28.3203;-5.7184;-5.9271;-18.2538;34.8000 
1286.034;0.4736;-0.2520;0.9780;0.6104;-2.3804;28.3203;-5.7513;-5.9766;-18.1219;34.8000 
1286.034;0.4551;-0.2520;0.9868;0.3662;-1.7700;22.0947;-5.7898;-6.0315;-18.0231;34.8600 
1286.034;0.4551;-0.2520;0.9868;0.3662;-1.7700;22.0947;-5.8282;-6.0809;-17.9297;34.8600 
1286.034;0.4551;-0.2520;0.9868;0.3662;-1.7700;22.0947;-5.8612;-6.1304;-17.8308;34.8600 
1286.034;0.4551;-0.2520;0.9868;0.3662;-1.7700;22.0947;-5.8997;-6.1798;-17.7319;34.8600 
1286.034;0.4551;-0.2520;0.9868;0.3662;-1.7700;22.0947;-5.9381;-6.2292;-17.6385;34.8100 
1286.034;0.4551;-0.2520;0.9868;0.3662;-1.7700;22.0947;-5.9711;-6.2787;-17.5397;34.8100 
1286.034;0.4551;-0.2520;0.9868;0.3662;-1.7700;22.0947;-6.0095;-6.3281;-17.4463;34.8600 
1286.034;0.4551;-0.2520;0.9868;0.3662;-1.7700;22.0947;-6.0425;-6.3776;-17.3474;34.8600 
1286.034;0.4541;-0.2588;0.9937;0.1221;-0.9766;14.8315;-6.0809;-6.4270;-17.2925;34.8600 
1286.054;0.4541;-0.2588;0.9937;0.1221;-0.9766;14.8315;-6.1139;-6.4764;-17.2321;34.8400 
1286.054;0.4541;-0.2588;0.9937;0.1221;-0.9766;14.8315;-6.1469;-6.5259;-17.1771;34.8400 
1286.054;0.4541;-0.2588;0.9937;0.1221;-0.9766;14.8315;-6.1853;-6.5698;-17.1222;34.8300 
1286.184;0.4541;-0.2588;0.9937;0.1221;-0.9766;14.8315;-6.2183;-6.6193;-17.0618;34.8300 
1286.184;0.4541;-0.2588;0.9937;0.1221;-0.9766;14.8315;-6.2512;-6.6632;-17.0013;34.8000 
1286.194;0.4541;-0.2588;0.9937;0.1221;-0.9766;14.8315;-6.2842;-6.7126;-16.9464;34.8000 
1286.194;0.4541;-0.2588;0.9937;0.1221;-0.9766;14.8315;-6.3226;-6.7621;-16.8860;34.8500 
1286.194;0.4346;-0.2446;0.9976;0.0000;-0.3052;7.0190;-6.3501;-6.8060;-16.8695;34.8500 
1286.194;0.4346;-0.2446;0.9976;0.0000;-0.3052;7.0190;-6.3776;-6.8500;-16.8475;34.8100 
1286.194;0.4346;-0.2446;0.9976;0.0000;-0.3052;7.0190;-6.4050;-6.8939;-16.8311;34.8100 
1286.194;0.4346;-0.2446;0.9976;0.0000;-0.3052;7.0190;-6.4325;-6.9379;-16.8146;34.8700 
1286.194;0.4346;-0.2446;0.9976;0.0000;-0.3052;7.0190;-6.4600;-6.9818;-16.7926;34.8700 
1286.194;0.4346;-0.2446;0.9976;0.0000;-0.3052;7.0190;-6.4874;-7.0258;-16.7761;34.8900 
1286.194;0.4346;-0.2446;0.9976;0.0000;-0.3052;7.0190;-6.5149;-7.0697;-16.7542;34.8900 
1286.194;0.4346;-0.2446;0.9976;0.0000;-0.3052;7.0190;-6.5424;-7.1136;-16.7377;34.8100 
1286.194;0.3833;-0.2090;0.9990;0.0000;0.0610;0.0000;-6.5588;-7.1521;-16.7596;34.8100 
1286.194;0.3833;-0.2090;0.9990;0.0000;0.0610;0.0000;-6.5753;-7.1960;-16.7761;34.8100 
1286.194;0.3833;-0.2090;0.9990;0.0000;0.0610;0.0000;-6.5918;-7.2345;-16.7926;34.7900 
1286.194;0.3833;-0.2090;0.9990;0.0000;0.0610;0.0000;-6.6083;-7.2729;-16.8091;34.7900 
1286.194;0.3833;-0.2090;0.9990;0.0000;0.0610;0.0000;-6.6248;-7.3114;-16.8256;34.8300 
1286.194;0.3833;-0.2090;0.9990;0.0000;0.0610;0.0000;-6.6467;-7.3499;-16.8420;34.8300 
1286.194;0.3833;-0.2090;0.9990;0.0000;0.0610;0.0000;-6.6632;-7.3883;-16.8585;34.8000 
1286.194;0.3833;-0.2090;0.9990;0.0000;0.0610;0.0000;-6.6797;-7.4268;-16.8750;34.8000 
1286.194;0.3032;-0.1499;0.9990;0.0000;0.3052;-4.7607;-6.6797;-7.4542;-16.9189;34.8200 
1286.194;0.3032;-0.1499;0.9990;0.0000;0.3052;-4.7607;-6.6852;-7.4817;-16.9629;34.8200 
1286.194;0.3032;-0.1499;0.9990;0.0000;0.3052;-4.7607;-6.6907;-7.5092;-17.0068;34.8700 
1286.194;0.3032;-0.1499;0.9990;0.0000;0.3052;-4.7607;-6.6962;-7.5421;-17.0508;34.8700 
1286.194;0.3032;-0.1499;0.9990;0.0000;0.3052;-4.7607;-6.6962;-7.5696;-17.0947;34.7900 
1286.194;0.3032;-0.1499;0.9990;0.0000;0.3052;-4.7607;-6.7017;-7.5970;-17.1332;34.7900 
1286.194;0.3032;-0.1499;0.9990;0.0000;0.3052;-4.7607;-6.7072;-7.6245;-17.1771;34.7900 
1286.194;0.3032;-0.1499;0.9990;0.0000;0.3052;-4.7607;-6.7072;-7.6520;-17.2211;34.7900 
1286.194;0.2021;-0.0830;0.9976;0.0610;0.3662;-6.7749;-6.6962;-7.6685;-17.2760;34.7900 
1286.194;0.2021;-0.0830;0.9976;0.0610;0.3662;-6.7749;-6.6907;-7.6794;-17.3364;34.7900 
1286.194;0.2021;-0.0830;0.9976;0.0610;0.3662;-6.7749;-6.6797;-7.6959;-17.3914;34.7900 
1286.194;0.2021;-0.0830;0.9976;0.0610;0.3662;-6.7749;-6.6687;-7.7069;-17.4463;34.8100 
1286.214;0.2021;-0.0830;0.9976;0.0610;0.3662;-6.7749;-6.6577;-7.7234;-17.5012;34.8100 
1286.214;0.2021;-0.0830;0.9976;0.0610;0.3662;-6.7749;-6.6467;-7.7344;-17.5562;34.8400 
1286.214;0.2021;-0.0830;0.9976;0.0610;0.3662;-6.7749;-6.6412;-7.7509;-17.6166;34.8400 
1286.214;0.2021;-0.0830;0.9976;0.0610;0.3662;-6.7749;-6.6302;-7.7618;-17.6715;34.8700 
1286.214;0.1162;-0.0273;0.9961;0.1221;0.3052;-6.3477;-6.6083;-7.7618;-17.7264;34.8700 
1286.214;0.1162;-0.0273;0.9961;0.1221;0.3052;-6.3477;-6.5863;-7.7618;-17.7814;34.8500 
1286.214;0.1162;-0.0273;0.9961;0.1221;0.3052;-6.3477;-6.5698;-7.7618;-17.8363;34.8500 
1286.214;0.1162;-0.0273;0.9961;0.1221;0.3052;-6.3477;-6.5479;-7.7618;-17.8912;34.7800 
1286.214;0.1162;-0.0273;0.9961;0.1221;0.3052;-6.3477;-6.5259;-7.7618;-17.9462;34.7800 
1286.214;0.1162;-0.0273;0.9961;0.1221;0.3052;-6.3477;-6.5094;-7.7618;-18.0011;34.7900 
1286.214;0.1162;-0.0273;0.9961;0.1221;0.3052;-6.3477;-6.4874;-7.7618;-18.0615;34.7900 
1286.214;0.1162;-0.0273;0.9961;0.1221;0.3052;-6.3477;-6.4709;-7.7618;-18.1165;34.8000 
1286.214;0.0591;0.0073;0.9956;0.0610;0.1831;-4.5166;-6.4435;-7.7509;-18.1604;34.8000 
1286.224;0.0591;0.0073;0.9956;0.0610;0.1831;-4.5166;-6.4160;-7.7399;-18.2043;34.8000 
1286.224;0.0591;0.0073;0.9956;0.0610;0.1831;-4.5166;-6.3940;-7.7289;-18.2483;34.8500 
1286.374;0.0591;0.0073;0.9956;0.0610;0.1831;-4.5166;-6.3666;-7.7179;-18.2977;34.8500 
1286.374;0.0591;0.0073;0.9956;0.0610;0.1831;-4.5166;-6.3446;-7.7124;-18.3417;34.8200 
1286.384;0.0591;0.0073;0.9956;0.0610;0.1831;-4.5166;-6.3226;-7.7014;-18.3856;34.8200 
1286.384;0.0591;0.0073;0.9956;0.0610;0.1831;-4.5166;-6.2952;-7.6904;-18.4296;34.7700 
1286.384;0.0591;0.0073;0.9956;0.0610;0.1831;-4.5166;-6.2732;-7.6794;-18.4735;34.7700 
1286.384;0.0317;0.0229;0.9946;0.0610;0.0610;-2.4414;-6.2457;-7.6630;-18.5065;34.8000 
1286.384;0.0317;0.0229;0.9946;0.0610;0.0610;-2.4414;-6.2183;-7.6520;-18.5394;34.8000 
1286.384;0.0317;0.0229;0.9946;0.0610;0.0610;-2.4414;-6.1963;-7.6355;-18.5724;34.8600 
1286.384;0.0317;0.0229;0.9946;0.0610;0.0610;-2.4414;-6.1688;-7.6190;-18.6053;34.8600 
1286.384;0.0317;0.0229;0.9946;0.0610;0.0610;-2.4414;-6.1414;-7.6025;-18.6383;34.8600 
1286.384;0.0317;0.0229;0.9946;0.0610;0.0610;-2.4414;-6.1194;-7.5916;-18.6713;34.8600 
1286.384;0.0317;0.0229;0.9946;0.0610;0.0610;-2.4414;-6.0919;-7.5751;-18.7042;34.8100 
1286.384;0.0317;0.0229;0.9946;0.0610;0.0610;-2.4414;-6.0699;-7.5586;-18.7317;34.8100 
1286.384;0.0273;0.0239;0.9946;0.0000;0.0000;-0.7324;-6.0425;-7.5421;-18.7537;34.8200 
1286.384;0.0273;0.0239;0.9946;0.0000;0.0000;-0.7324;-6.0205;-7.5256;-18.7811;34.8200 
1286.384;0.0273;0.0239;0.9946;0.0000;0.0000;-0.7324;-5.9985;-7.5092;-18.8031;34.8200 
1286.384;0.0273;0.0239;0.9946;0.0000;0.0000;-0.7324;-5.9711;-7.4927;-18.8251;34.8600 
1286.384;0.0273;0.0239;0.9946;0.0000;0.0000;-0.7324;-5.9491;-7.4762;-18.8470;34.8600 
1286.384;0.0273;0.0239;0.9946;0.0000;0.0000;-0.7324;-5.9271;-7.4597;-18.8690;34.8700 
1286.404;0.0273;0.0239;0.9946;0.0000;0.0000;-0.7324;-5.8997;-7.4432;-18.8910;34.8700 
1286.404;0.0273;0.0239;0.9946;0.0000;0.0000;-0.7324;-5.8777;-7.4268;-18.9130;34.8400 
1286.413;0.0361;0.0171;0.9941;0.0000;0.0000;0.3052;-5.8557;-7.4158;-18.9294;34.8400 
1286.413;0.0361;0.0171;0.9941;0.0000;0.0000;0.3052;-5.8337;-7.3993;-18.9459;34.7800 
1286.423;0.0361;0.0171;0.9941;0.0000;0.0000;0.3052;-5.8173;-7.3828;-18.9624;34.7800 
1286.423;0.0361;0.0171;0.9941;0.0000;0.0000;0.3052;-5.7953;-7.3718;-18.9789;34.8400 
1286.473;0.0361;0.0171;0.9941;0.0000;0.0000;0.3052;-5.7733;-7.3553;-18.9954;34.8400 
1286.473;0.0361;0.0171;0.9941;0.0000;0.0000;0.3052;-5.7513;-7.3389;-19.0118;34.8000 
1286.633;0.0361;0.0171;0.9941;0.0000;0.0000;0.3052;-5.7294;-7.3224;-19.0338;34.8000 
1286.633;0.0361;0.0171;0.9941;0.0000;0.0000;0.3052;-5.7074;-7.3114;-19.0448;34.7900 
1286.633;0.0493;0.0078;0.9941;0.0000;-0.0610;0.7935;-5.6909;-7.2949;-19.0613;34.7900 
1286.633;0.0493;0.0078;0.9941;0.0000;-0.0610;0.7935;-5.6744;-7.2839;-19.0723;34.8200 
1286.633;0.0493;0.0078;0.9941;0.0000;-0.0610;0.7935;-5.6525;-7.2729;-19.0887;34.8200 
1286.633;0.0493;0.0078;0.9941;0.0000;-0.0610;0.7935;-5.6360;-7.2620;-19.1052;34.8200 
1286.763;0.0493;0.0078;0.9941;0.0000;-0.0610;0.7935;-5.6195;-7.2455;-19.1217;34.8100 
1286.763;0.0493;0.0078;0.9941;0.0000;-0.0610;0.7935;-5.5975;-7.2345;-19.1327;34.8100 
1286.763;0.0493;0.0078;0.9941;0.0000;-0.0610;0.7935;-5.5811;-7.2235;-19.1492;34.8600 
1286.763;0.0493;0.0078;0.9941;0.0000;-0.0610;0.7935;-5.5591;-7.2125;-19.1656;34.8600 
1286.763;0.0620;-0.0005;0.9946;0.0000;-0.0610;0.8545;-5.5426;-7.2015;-19.1821;34.7800 
1286.763;0.0620;-0.0005;0.9946;0.0000;-0.0610;0.8545;-5.5261;-7.1906;-19.1986;34.7800 
1286.763;0.0620;-0.0005;0.9946;0.0000;-0.0610;0.8545;-5.5096;-7.1796;-19.2151;34.8800 
1286.763;0.0620;-0.0005;0.9946;0.0000;-0.0610;0.8545;-5.4932;-7.1686;-19.2316;34.8800 
1286.763;0.0620;-0.0005;0.9946;0.0000;-0.0610;0.8545;-5.4767;-7.1631;-19.2480;34.7500 
1286.763;0.0620;-0.0005;0.9946;0.0000;-0.0610;0.8545;-5.4602;-7.1521;-19.2645;34.7500 
1286.763;0.0620;-0.0005;0.9946;0.0000;-0.0610;0.8545;-5.4437;-7.1411;-19.2810;34.8100 
1286.763;0.0620;-0.0005;0.9946;0.0000;-0.0610;0.8545;-5.4272;-7.1301;-19.2975;34.8100 
1286.763;0.0713;-0.0063;0.9946;0.0000;0.0000;0.6104;-5.4163;-7.1246;-19.3140;34.8400 
1286.763;0.0713;-0.0063;0.9946;0.0000;0.0000;0.6104;-5.3998;-7.1136;-19.3304;34.8400 
1286.763;0.0713;-0.0063;0.9946;0.0000;0.0000;0.6104;-5.3833;-7.1082;-19.3469;34.8400 
1286.763;0.0713;-0.0063;0.9946;0.0000;0.0000;0.6104;-5.3668;-7.0972;-19.3634;34.8700 
1286.763;0.0713;-0.0063;0.9946;0.0000;0.0000;0.6104;-5.3503;-7.0862;-19.3799;34.8700 
1286.763;0.0713;-0.0063;0.9946;0.0000;0.0000;0.6104;-5.3394;-7.0807;-19.3964;34.8200 
1286.763;0.0713;-0.0063;0.9946;0.0000;0.0000;0.6104;-5.3229;-7.0697;-19.4128;34.8200 
1286.763;0.0713;-0.0063;0.9946;0.0000;0.0000;0.6104;-5.3064;-7.0642;-19.4293;34.7800 
1286.763;0.0762;-0.0093;0.9946;0.0000;0.0000;0.3662;-5.2954;-7.0587;-19.4458;34.7800 
1286.763;0.0762;-0.0093;0.9946;0.0000;0.0000;0.3662;-5.2789;-7.0477;-19.4623;34.8600 
1286.763;0.0762;-0.0093;0.9946;0.0000;0.0000;0.3662;-5.2625;-7.0422;-19.4788;34.8600 
1286.763;0.0762;-0.0093;0.9946;0.0000;0.0000;0.3662;-5.2515;-7.0313;-19.4952;34.8100 
1286.763;0.0762;-0.0093;0.9946;0.0000;0.0000;0.3662;-5.2350;-7.0258;-19.5117;34.8100 
1286.763;0.0762;-0.0093;0.9946;0.0000;0.0000;0.3662;-5.2185;-7.0203;-19.5282;34.8200 
1286.763;0.0762;-0.0093;0.9946;0.0000;0.0000;0.3662;-5.2075;-7.0093;-19.5502;34.8200 
1286.823;0.0762;-0.0093;0.9946;0.0000;0.0000;0.3662;-5.1910;-7.0038;-19.5667;34.7700 
1286.823;0.0776;-0.0103;0.9946;0.0000;0.0000;0.0610;-5.1801;-6.9983;-19.5831;34.7700 
1286.823;0.0776;-0.0103;0.9946;0.0000;0.0000;0.0610;-5.1636;-6.9928;-19.6051;34.8200 
1286.823;0.0776;-0.0103;0.9946;0.0000;0.0000;0.0610;-5.1471;-6.9818;-19.6216;34.8200 
1286.823;0.0776;-0.0103;0.9946;0.0000;0.0000;0.0610;-5.1361;-6.9763;-19.6436;34.8200 
1286.823;0.0776;-0.0103;0.9946;0.0000;0.0000;0.0610;-5.1196;-6.9708;-19.6600;34.7200 
1286.823;0.0776;-0.0103;0.9946;0.0000;0.0000;0.0610;-5.1086;-6.9653;-19.6820;34.7200 
1286.823;0.0776;-0.0103;0.9946;0.0000;0.0000;0.0610;-5.0922;-6.9543;-19.6985;34.8100 
1286.823;0.0776;-0.0103;0.9946;0.0000;0.0000;0.0610;-5.0812;-6.9489;-19.7205;34.8100 
1286.823;0.0771;-0.0098;0.9946;0.0000;0.0000;0.0000;-5.0647;-6.9434;-19.7369;34.8500 
1286.823;0.0771;-0.0098;0.9946;0.0000;0.0000;0.0000;-5.0537;-6.9379;-19.7534;34.8500 
1286.823;0.0771;-0.0098;0.9946;0.0000;0.0000;0.0000;-5.0372;-6.9324;-19.7754;34.9100 
1286.823;0.0771;-0.0098;0.9946;0.0000;0.0000;0.0000;-5.0262;-6.9214;-19.7919;34.9100 
1286.823;0.0771;-0.0098;0.9946;0.0000;0.0000;0.0000;-5.0098;-6.9159;-19.8083;34.8300 
1286.823;0.0771;-0.0098;0.9946;0.0000;0.0000;0.0000;-4.9988;-6.9104;-19.8303;34.8300 
1286.823;0.0771;-0.0098;0.9946;0.0000;0.0000;0.0000;-4.9823;-6.9049;-19.8468;34.8500 
1286.823;0.0771;-0.0098;0.9946;0.0000;0.0000;0.0000;-4.9713;-6.8939;-19.8633;34.8500 
1286.823;0.0752;-0.0078;0.9946;0.0000;0.0000;-0.1221;-4.9548;-6.8884;-19.8798;34.8000 
1286.823;0.0752;-0.0078;0.9946;0.0000;0.0000;-0.1221;-4.9384;-6.8829;-19.8962;34.8000 
1286.823;0.0752;-0.0078;0.9946;0.0000;0.0000;-0.1221;-4.9274;-6.8774;-19.9127;34.8000 
1286.823;0.0752;-0.0078;0.9946;0.0000;0.0000;-0.1221;-4.9109;-6.8665;-19.9347;34.8000 
1286.823;0.0752;-0.0078;0.9946;0.0000;0.0000;-0.1221;-4.8999;-6.8610;-19.9512;34.8000 
1286.823;0.0752;-0.0078;0.9946;0.0000;0.0000;-0.1221;-4.8834;-6.8555;-19.9677;34.8100 
1286.823;0.0752;-0.0078;0.9946;0.0000;0.0000;-0.1221;-4.8724;-6.8500;-19.9786;34.8100 
1286.823;0.0752;-0.0078;0.9946;0.0000;0.0000;-0.1221;-4.8560;-6.8390;-19.9951;34.8300 
1286.823;0.0732;-0.0068;0.9951;0.0000;0.0000;-0.1221;-4.8450;-6.8335;-20.0116;34.8300 
1286.823;0.0732;-0.0068;0.9951;0.0000;0.0000;-0.1221;-4.8285;-6.8280;-20.0281;34.8400 
1286.823;0.0732;-0.0068;0.9951;0.0000;0.0000;-0.1221;-4.8175;-6.8170;-20.0391;34.8400 
1286.823;0.0732;-0.0068;0.9951;0.0000;0.0000;-0.1221;-4.8010;-6.8115;-20.0555;34.7700 
1286.863;0.0732;-0.0068;0.9951;0.0000;0.0000;-0.1221;-4.7900;-6.8060;-20.0720;34.7700 
1286.863;0.0732;-0.0068;0.9951;0.0000;0.0000;-0.1221;-4.7736;-6.7950;-20.0830;34.7900 
1286.993;0.0732;-0.0068;0.9951;0.0000;0.0000;-0.1221;-4.7626;-6.7896;-20.0995;34.7900 
1286.993;0.0732;-0.0068;0.9951;0.0000;0.0000;-0.1221;-4.7461;-6.7841;-20.1160;34.7800 
1286.993;0.0718;-0.0054;0.9951;0.0000;0.0000;-0.1221;-4.7351;-6.7731;-20.1270;34.7800 
1286.993;0.0718;-0.0054;0.9951;0.0000;0.0000;-0.1221;-4.7186;-6.7676;-20.1434;34.8600 
1286.993;0.0718;-0.0054;0.9951;0.0000;0.0000;-0.1221;-4.7076;-6.7621;-20.1599;34.8600 
1286.993;0.0718;-0.0054;0.9951;0.0000;0.0000;-0.1221;-4.6912;-6.7511;-20.1764;34.8300 
1286.993;0.0718;-0.0054;0.9951;0.0000;0.0000;-0.1221;-4.6802;-6.7456;-20.1874;34.8300 
1286.993;0.0718;-0.0054;0.9951;0.0000;0.0000;-0.1221;-4.6637;-6.7401;-20.2039;34.8300 
1286.993;0.0718;-0.0054;0.9951;0.0000;0.0000;-0.1221;-4.6527;-6.7291;-20.2203;34.8100 
1286.993;0.0718;-0.0054;0.9951;0.0000;0.0000;-0.1221;-4.6417;-6.7236;-20.2368;34.8100 
1287.013;0.0708;-0.0049;0.9951;0.0000;0.0000;-0.0610;-4.6252;-6.7181;-20.2533;34.8000 
1287.013;0.0708;-0.0049;0.9951;0.0000;0.0000;-0.0610;-4.6143;-6.7072;-20.2698;34.8000 
1287.013;0.0708;-0.0049;0.9951;0.0000;0.0000;-0.0610;-4.5978;-6.7017;-20.2917;34.8700 
1287.013;0.0708;-0.0049;0.9951;0.0000;0.0000;-0.0610;-4.5868;-6.6962;-20.3082;34.8700 
1287.013;0.0708;-0.0049;0.9951;0.0000;0.0000;-0.0610;-4.5703;-6.6907;-20.3247;34.8500 
1287.013;0.0708;-0.0049;0.9951;0.0000;0.0000;-0.0610;-4.5593;-6.6797;-20.3467;34.8500 
1287.013;0.0708;-0.0049;0.9951;0.0000;0.0000;-0.0610;-4.5428;-6.6742;-20.3632;34.8300 
1287.013;0.0708;-0.0049;0.9951;0.0000;0.0000;-0.0610;-4.5319;-6.6687;-20.3796;34.8300 
1287.013;0.0708;-0.0049;0.9951;0.0000;0.0000;-0.0610;-4.5209;-6.6577;-20.3961;34.8500 
1287.013;0.0708;-0.0049;0.9951;0.0000;0.0000;-0.0610;-4.5044;-6.6522;-20.4126;34.8500 
1287.013;0.0708;-0.0049;0.9951;0.0000;0.0000;-0.0610;-4.4934;-6.6467;-20.4291;34.8500 
1287.013;0.0708;-0.0049;0.9951;0.0000;0.0000;-0.0610;-4.4769;-6.6357;-20.4456;34.8500 
1287.013;0.0708;-0.0049;0.9951;0.0000;0.0000;-0.0610;-4.4659;-6.6302;-20.4620;34.8500 
1287.013;0.0708;-0.0049;0.9951;0.0000;0.0000;-0.0610;-4.4550;-6.6248;-20.4785;34.8300 
1287.013;0.0708;-0.0049;0.9951;0.0000;0.0000;-0.0610;-4.4385;-6.6193;-20.4950;34.8300 
1287.013;0.0708;-0.0049;0.9951;0.0000;0.0000;-0.0610;-4.4275;-6.6083;-20.5115;34.8500 
1287.013;0.0708;-0.0049;0.9951;0.0000;0.0000;0.0000;-4.4165;-6.6028;-20.5225;34.8500 
