Time;ax;ay;az;wx;wy;wz;AngleX;AngleY;AngleZ;T 
1382.488;0.0024;0.0117;0.9922;0.0000;0.0000;0.0000;0.6976;-0.1978;-53.2947;34.8000 
1382.488;0.0034;0.0122;0.9927;0.0000;0.0000;0.0000;0.6976;-0.1978;-53.2947;34.8000 
1382.488;0.0034;0.0122;0.9927;0.0000;0.0000;0.0000;0.6976;-0.1978;-53.2947;34.8000 
1382.488;0.0034;0.0122;0.9927;0.0000;0.0000;0.0000;0.6976;-0.1978;-53.2947;34.8400 
1382.488;0.0034;0.0122;0.9927;0.0000;0.0000;0.0000;0.6976;-0.1978;-53.2947;34.8400 
1382.488;0.0034;0.0122;0.9927;0.0000;0.0000;0.0000;0.6976;-0.1978;-53.2947;34.8400 
1382.488;0.0034;0.0122;0.9927;0.0000;0.0000;0.0000;0.6976;-0.1978;-53.3002;34.8400 
1382.488;0.0034;0.0122;0.9927;0.0000;0.0000;0.0000;0.6976;-0.1978;-53.3002;34.8100 
1382.488;0.0034;0.0122;0.9927;0.0000;0.0000;0.0000;0.6976;-0.1978;-53.3002;34.8100 
1382.488;0.0024;0.0117;0.9927;0.0000;0.0000;0.0000;0.6976;-0.1978;-53.3002;34.8700 
1382.488;0.0024;0.0117;0.9927;0.0000;0.0000;0.0000;0.6976;-0.1978;-53.3002;34.8700 
1382.488;0.0024;0.0117;0.9927;0.0000;0.0000;0.0000;0.6976;-0.1978;-53.3002;34.8100 
1382.488;0.0024;0.0117;0.9927;0.0000;0.0000;0.0000;0.6976;-0.1978;-53.2947;34.8100 
1382.488;0.0024;0.0117;0.9927;0.0000;0.0000;0.0000;0.6976;-0.1978;-53.2947;34.8100 
1382.488;0.0024;0.0117;0.9927;0.0000;0.0000;0.0000;0.6976;-0.1978;-53.2947;34.8200 
1382.488;0.0024;0.0117;0.9927;0.0000;0.0000;0.0000;0.6976;-0.1978;-53.2892;34.8200 
1382.488;0.0024;0.0117;0.9927;0.0000;0.0000;0.0000;0.6976;-0.1978;-53.2892;34.7900 
1382.488;0.0029;0.0122;0.9927;0.0000;0.0000;0.0000;0.6976;-0.1978;-53.2837;34.7900 
1382.488;0.0029;0.0122;0.9927;0.0000;0.0000;0.0000;0.6976;-0.1978;-53.2837;34.8300 
1382.488;0.0029;0.0122;0.9927;0.0000;0.0000;0.0000;0.6976;-0.1978;-53.2837;34.8300 
1382.488;0.0029;0.0122;0.9927;0.0000;0.0000;0.0000;0.6976;-0.1978;-53.2782;34.8600 
1382.488;0.0029;0.0122;0.9927;0.0000;0.0000;0.0000;0.6976;-0.1978;-53.2782;34.8600 
1382.488;0.0029;0.0122;0.9927;0.0000;0.0000;0.0000;0.6976;-0.1978;-53.2782;34.8500 
1382.488;0.0029;0.0122;0.9927;0.0000;0.0000;0.0000;0.6976;-0.1978;-53.2782;34.8500 
1382.488;0.0029;0.0122;0.9927;0.0000;0.0000;0.0000;0.6976;-0.1978;-53.2782;34.9000 
1382.488;0.0029;0.0117;0.9922;0.0000;0.0000;0.0000;0.6976;-0.1978;-53.2837;34.9000 
1382.498;0.0029;0.0117;0.9922;0.0000;0.0000;0.0000;0.6976;-0.1978;-53.2837;34.8800 
1382.498;0.0029;0.0117;0.9922;0.0000;0.0000;0.0000;0.6976;-0.1978;-53.2837;34.8800 
1382.638;0.0029;0.0117;0.9922;0.0000;0.0000;0.0000;0.6976;-0.1978;-53.2837;34.8700 
1382.638;0.0029;0.0117;0.9922;0.0000;0.0000;0.0000;0.6976;-0.1978;-53.2837;34.8700 
1382.638;0.0029;0.0117;0.9922;0.0000;0.0000;0.0000;0.6976;-0.1978;-53.2837;34.8700 
1382.638;0.0029;0.0117;0.9922;0.0000;0.0000;0.0000;0.6976;-0.1978;-53.2837;34.8300 
1382.638;0.0029;0.0117;0.9922;0.0000;0.0000;0.0000;0.6976;-0.1978;-53.2837;34.8300 
1382.638;0.0034;0.0117;0.9927;0.0610;0.0000;0.0000;0.6976;-0.1978;-53.2837;34.8300 
1382.638;0.0034;0.0117;0.9927;0.0610;0.0000;0.0000;0.6976;-0.1978;-53.2837;34.8300 
1382.638;0.0034;0.0117;0.9927;0.0610;0.0000;0.0000;0.6976;-0.1978;-53.2837;34.8200 
1382.638;0.0034;0.0117;0.9927;0.0610;0.0000;0.0000;0.6976;-0.1978;-53.2837;34.8200 
1382.638;0.0034;0.0117;0.9927;0.0610;0.0000;0.0000;0.6976;-0.1978;-53.2837;34.8500 
1382.638;0.0034;0.0117;0.9927;0.0610;0.0000;0.0000;0.6976;-0.1978;-53.2837;34.8500 
1382.638;0.0034;0.0117;0.9927;0.0610;0.0000;0.0000;0.6976;-0.1978;-53.2782;34.8100 
1382.638;0.0034;0.0117;0.9927;0.0610;0.0000;0.0000;0.7031;-0.1978;-53.2782;34.8100 
1382.638;0.0034;0.0117;0.9922;0.0000;0.0000;0.0000;0.7031;-0.1978;-53.2782;34.7500 
1382.638;0.0034;0.0117;0.9922;0.0000;0.0000;0.0000;0.7031;-0.1978;-53.2782;34.7500 
1382.638;0.0034;0.0117;0.9922;0.0000;0.0000;0.0000;0.7031;-0.1978;-53.2782;34.8500 
1382.638;0.0034;0.0117;0.9922;0.0000;0.0000;0.0000;0.7031;-0.1978;-53.2782;34.8500 
1382.638;0.0034;0.0117;0.9922;0.0000;0.0000;0.0000;0.6976;-0.1978;-53.2782;34.7500 
1382.638;0.0034;0.0117;0.9922;0.0000;0.0000;0.0000;0.6976;-0.1978;-53.2782;34.7500 
1382.638;0.0034;0.0117;0.9922;0.0000;0.0000;0.0000;0.6976;-0.1978;-53.2782;34.7500 
1382.638;0.0034;0.0117;0.9922;0.0000;0.0000;0.0000;0.6976;-0.1978;-53.2782;34.8600 
1382.648;0.0034;0.0117;0.9922;0.0000;0.0000;0.0000;0.6976;-0.1978;-53.2782;34.8600 
1382.648;0.0034;0.0117;0.9922;0.0000;0.0000;0.0000;0.6976;-0.1978;-53.2782;34.8400 
1382.648;0.0034;0.0117;0.9922;0.0000;0.0000;0.0000;0.6976;-0.1978;-53.2782;34.8400 
1382.648;0.0034;0.0117;0.9922;0.0000;0.0000;0.0000;0.6976;-0.1978;-53.2727;34.8700 
1382.648;0.0034;0.0117;0.9922;0.0000;0.0000;0.0000;0.6976;-0.1978;-53.2727;34.8700 
1382.648;0.0034;0.0117;0.9922;0.0000;0.0000;0.0000;0.6976;-0.1978;-53.2727;34.8100 
1382.648;0.0034;0.0117;0.9922;0.0000;0.0000;0.0000;0.6976;-0.1978;-53.2727;34.8100 
1382.648;0.0034;0.0117;0.9922;0.0000;0.0000;0.0000;0.6976;-0.1978;-53.2727;34.7600 
1382.648;0.0034;0.0117;0.9927;0.0610;0.0000;0.0000;0.6976;-0.1978;-53.2727;34.7600 
1382.648;0.0034;0.0117;0.9927;0.0610;0.0000;0.0000;0.6976;-0.1978;-53.2727;34.8600 
1382.648;0.0034;0.0117;0.9927;0.0610;0.0000;0.0000;0.7031;-0.1978;-53.2782;34.8600 
1382.648;0.0034;0.0117;0.9927;0.0610;0.0000;0.0000;0.7031;-0.1978;-53.2782;34.7800 
1382.648;0.0034;0.0117;0.9927;0.0610;0.0000;0.0000;0.7031;-0.1978;-53.2782;34.7800 
1382.648;0.0034;0.0117;0.9927;0.0610;0.0000;0.0000;0.7031;-0.1978;-53.2782;34.8200 
1382.648;0.0034;0.0117;0.9927;0.0610;0.0000;0.0000;0.7031;-0.1978;-53.2782;34.8200 
1382.648;0.0034;0.0117;0.9927;0.0610;0.0000;0.0000;0.7031;-0.1978;-53.2782;34.8200 
1382.648;0.0029;0.0117;0.9922;0.0610;0.0000;0.0000;0.7031;-0.1978;-53.2782;34.7800 
1382.648;0.0029;0.0117;0.9922;0.0610;0.0000;0.0000;0.7031;-0.1978;-53.2782;34.7800 
1382.648;0.0029;0.0117;0.9922;0.0610;0.0000;0.0000;0.7031;-0.1978;-53.2782;34.8700 
1382.648;0.0029;0.0117;0.9922;0.0610;0.0000;0.0000;0.7031;-0.1978;-53.2782;34.8700 
1382.648;0.0029;0.0117;0.9922;0.0610;0.0000;0.0000;0.7031;-0.1978;-53.2782;34.7800 
1382.648;0.0029;0.0117;0.9922;0.0610;0.0000;0.0000;0.7031;-0.1978;-53.2837;34.7800 
1382.648;0.0029;0.0117;0.9922;0.0610;0.0000;0.0000;0.7031;-0.1978;-53.2837;34.7700 
1382.648;0.0029;0.0117;0.9922;0.0610;0.0000;0.0000;0.7031;-0.1978;-53.2837;34.7700 
1382.648;0.0034;0.0122;0.9927;0.0610;0.0000;0.0000;0.7031;-0.1978;-53.2837;34.8100 
1382.648;0.0034;0.0122;0.9927;0.0610;0.0000;0.0000;0.7031;-0.1978;-53.2837;34.8100 
1382.648;0.0034;0.0122;0.9927;0.0610;0.0000;0.0000;0.7031;-0.1923;-53.2892;34.7900 
1382.668;0.0034;0.0122;0.9927;0.0610;0.0000;0.0000;0.7031;-0.1923;-53.2892;34.7900 
1382.668;0.0034;0.0122;0.9927;0.0610;0.0000;0.0000;0.7031;-0.1923;-53.2892;34.8200 
1382.668;0.0034;0.0122;0.9927;0.0610;0.0000;0.0000;0.7031;-0.1923;-53.2892;34.8200 
1382.678;0.0034;0.0122;0.9927;0.0610;0.0000;0.0000;0.7031;-0.1923;-53.2892;34.8200 
1382.678;0.0034;0.0122;0.9927;0.0610;0.0000;0.0000;0.7086;-0.1923;-53.2892;34.8600 
1382.778;0.0024;0.0117;0.9927;0.0610;0.0000;0.0000;0.7086;-0.1923;-53.2892;34.8600 
1382.778;0.0024;0.0117;0.9927;0.0610;0.0000;0.0000;0.7086;-0.1923;-53.2892;34.8500 
1382.778;0.0024;0.0117;0.9927;0.0610;0.0000;0.0000;0.7086;-0.1923;-53.2837;34.8500 
1382.778;0.0024;0.0117;0.9927;0.0610;0.0000;0.0000;0.7086;-0.1923;-53.2837;34.8400 
1382.798;0.0024;0.0117;0.9927;0.0610;0.0000;0.0000;0.7086;-0.1923;-53.2837;34.8400 
1382.798;0.0024;0.0117;0.9927;0.0610;0.0000;0.0000;0.7086;-0.1923;-53.2892;34.8900 
1382.798;0.0024;0.0117;0.9927;0.0000;0.0000;0.0000;0.7086;-0.1923;-53.2892;34.8900 
1382.798;0.0024;0.0117;0.9927;0.0000;0.0000;0.0000;0.7086;-0.1923;-53.2892;34.7900 
1382.798;0.0034;0.0117;0.9932;0.0000;0.0000;0.0000;0.7086;-0.1923;-53.2892;34.7900 
1382.798;0.0034;0.0117;0.9932;0.0000;0.0000;0.0000;0.7086;-0.1923;-53.2947;34.8300 
1382.798;0.0034;0.0117;0.9932;0.0000;0.0000;0.0000;0.7086;-0.1923;-53.2947;34.8300 
1382.798;0.0034;0.0117;0.9932;0.0000;0.0000;0.0000;0.7086;-0.1923;-53.2947;34.8500 
1382.798;0.0034;0.0117;0.9932;0.0000;0.0000;0.0000;0.7086;-0.1923;-53.2947;34.8500 
1382.798;0.0034;0.0117;0.9932;0.0000;0.0000;0.0000;0.7086;-0.1923;-53.2947;34.8400 
1382.798;0.0034;0.0117;0.9932;0.0000;0.0000;0.0000;0.7086;-0.1923;-53.2947;34.8400 
1382.798;0.0034;0.0117;0.9932;0.0000;0.0000;0.0000;0.7086;-0.1923;-53.2947;34.8400 
1382.798;0.0020;0.0117;0.9917;0.0000;0.0000;0.0000;0.7086;-0.1923;-53.2947;34.8800 
1382.798;0.0020;0.0117;0.9917;0.0000;0.0000;0.0000;0.7086;-0.1923;-53.2947;34.8800 
1382.798;0.0020;0.0117;0.9917;0.0000;0.0000;0.0000;0.7086;-0.1923;-53.2947;34.8400 
1382.798;0.0020;0.0117;0.9917;0.0000;0.0000;0.0000;0.7086;-0.1923;-53.2947;34.8400 
1382.798;0.0020;0.0117;0.9917;0.0000;0.0000;0.0000;0.7086;-0.1923;-53.2947;34.7500 
1382.798;0.0020;0.0117;0.9917;0.0000;0.0000;0.0000;0.7086;-0.1923;-53.2947;34.7500 
1382.798;0.0020;0.0117;0.9917;0.0000;0.0000;0.0000;0.7086;-0.1923;-53.2892;34.8100 
1382.798;0.0020;0.0117;0.9917;0.0000;0.0000;0.0000;0.7086;-0.1923;-53.2892;34.8100 
1382.798;0.0029;0.0122;0.9932;0.0000;0.0000;0.0000;0.7086;-0.1923;-53.2892;34.8200 
1382.798;0.0029;0.0122;0.9932;0.0000;0.0000;0.0000;0.7086;-0.1923;-53.2892;34.8200 
1382.818;0.0029;0.0122;0.9932;0.0000;0.0000;0.0000;0.7086;-0.1923;-53.2892;34.8200 
1382.828;0.0029;0.0122;0.9932;0.0000;0.0000;0.0000;0.7086;-0.1923;-53.2892;34.8200 
1382.828;0.0029;0.0122;0.9932;0.0000;0.0000;0.0000;0.7086;-0.1923;-53.2837;34.7500 
1382.848;0.0029;0.0122;0.9932;0.0000;0.0000;0.0000;0.7086;-0.1923;-53.2837;34.7500 
1382.848;0.0029;0.0122;0.9932;0.0000;0.0000;0.0000;0.7086;-0.1923;-53.2837;34.7600 
1382.858;0.0029;0.0122;0.9932;0.0000;0.0000;0.0000;0.7086;-0.1923;-53.2837;34.7600 
1382.858;0.0015;0.0117;0.9912;0.0000;0.0000;0.0000;0.7086;-0.1923;-53.2782;34.7600 
1382.858;0.0015;0.0117;0.9912;0.0000;0.0000;0.0000;0.7086;-0.1923;-53.2782;34.7800 
1382.858;0.0015;0.0117;0.9912;0.0000;0.0000;0.0000;0.7086;-0.1923;-53.2782;34.7800 
1382.868;0.0015;0.0117;0.9912;0.0000;0.0000;0.0000;0.7086;-0.1923;-53.2782;34.8600 
1382.868;0.0015;0.0117;0.9912;0.0000;0.0000;0.0000;0.7086;-0.1868;-53.2782;34.8600 
1382.868;0.0015;0.0117;0.9912;0.0000;0.0000;0.0000;0.7031;-0.1868;-53.2727;34.8300 
1382.868;0.0015;0.0117;0.9912;0.0000;0.0000;0.0000;0.7031;-0.1868;-53.2727;34.8300 
1382.978;0.0015;0.0117;0.9912;0.0000;0.0000;0.0000;0.7031;-0.1868;-53.2727;34.8600 
1382.978;0.0029;0.0122;0.9927;0.0000;0.0000;0.0000;0.7031;-0.1868;-53.2727;34.8600 
1382.988;0.0029;0.0122;0.9927;0.0000;0.0000;0.0000;0.7031;-0.1868;-53.2727;34.8200 
1382.988;0.0029;0.0122;0.9927;0.0000;0.0000;0.0000;0.7031;-0.1868;-53.2727;34.8200 
1382.988;0.0029;0.0122;0.9927;0.0000;0.0000;0.0000;0.7031;-0.1868;-53.2727;34.7800 
1382.988;0.0029;0.0122;0.9927;0.0000;0.0000;0.0000;0.7031;-0.1868;-53.2672;34.7800 
1382.988;0.0029;0.0122;0.9927;0.0000;0.0000;0.0000;0.7031;-0.1868;-53.2672;34.8400 
1382.988;0.0029;0.0122;0.9927;0.0000;0.0000;0.0000;0.7031;-0.1868;-53.2672;34.8400 
1382.988;0.0029;0.0122;0.9927;0.0000;0.0000;0.0000;0.7031;-0.1868;-53.2617;34.8500 
1382.988;0.0024;0.0122;0.9922;0.0000;0.0000;0.0000;0.7031;-0.1868;-53.2617;34.8500 
1382.988;0.0024;0.0122;0.9922;0.0000;0.0000;0.0000;0.7031;-0.1868;-53.2617;34.8500 
1382.988;0.0024;0.0122;0.9922;0.0000;0.0000;0.0000;0.7031;-0.1868;-53.2617;34.8100 
1382.988;0.0024;0.0122;0.9922;0.0000;0.0000;0.0000;0.7031;-0.1868;-53.2562;34.8100 
1382.988;0.0024;0.0122;0.9922;0.0000;0.0000;0.0000;0.7031;-0.1868;-53.2562;34.8000 
1382.988;0.0024;0.0122;0.9922;0.0000;0.0000;0.0000;0.7031;-0.1868;-53.2562;34.8000 
1382.988;0.0024;0.0122;0.9922;0.0000;0.0000;0.0000;0.7031;-0.1868;-53.2562;34.8200 
1382.988;0.0024;0.0122;0.9922;0.0000;0.0000;0.0000;0.7031;-0.1868;-53.2562;34.8200 
1382.988;0.0024;0.0122;0.9927;0.0000;0.0000;0.0000;0.7031;-0.1868;-53.2562;34.8100 
1382.988;0.0024;0.0122;0.9927;0.0000;0.0000;0.0000;0.7031;-0.1868;-53.2562;34.8100 
1382.988;0.0024;0.0122;0.9927;0.0000;0.0000;0.0000;0.7086;-0.1868;-53.2562;34.8100 
1382.988;0.0024;0.0122;0.9927;0.0000;0.0000;0.0000;0.7086;-0.1868;-53.2562;34.8100 
1382.988;0.0024;0.0122;0.9927;0.0000;0.0000;0.0000;0.7086;-0.1868;-53.2562;34.8100 
1382.988;0.0024;0.0122;0.9927;0.0000;0.0000;0.0000;0.7086;-0.1868;-53.2562;34.8100 
1383.008;0.0024;0.0122;0.9927;0.0000;0.0000;0.0000;0.7086;-0.1868;-53.2562;34.8300 
1383.008;0.0024;0.0122;0.9927;0.0000;0.0000;0.0000;0.7086;-0.1868;-53.2562;34.8300 
1383.008;0.0015;0.0122;0.9922;0.0000;0.0000;0.0000;0.7086;-0.1868;-53.2562;34.8300 
1383.008;0.0015;0.0122;0.9922;0.0000;0.0000;0.0000;0.7086;-0.1868;-53.2562;34.8300 
1383.018;0.0015;0.0122;0.9922;0.0000;0.0000;0.0000;0.7086;-0.1868;-53.2562;34.8300 
1383.018;0.0015;0.0122;0.9922;0.0000;0.0000;0.0000;0.7086;-0.1868;-53.2562;34.7900 
1383.018;0.0015;0.0122;0.9922;0.0000;0.0000;0.0000;0.7086;-0.1813;-53.2562;34.7900 
1383.018;0.0015;0.0122;0.9922;0.0000;0.0000;0.0000;0.7086;-0.1813;-53.2562;34.8700 
1383.038;0.0015;0.0122;0.9922;0.0000;0.0000;0.0000;0.7086;-0.1813;-53.2562;34.8700 
1383.038;0.0015;0.0122;0.9922;0.0000;0.0000;0.0000;0.7086;-0.1813;-53.2617;34.8400 
1383.058;0.0010;0.0122;0.9922;0.0000;0.0000;0.0000;0.7086;-0.1813;-53.2617;34.8400 
1383.058;0.0010;0.0122;0.9922;0.0000;0.0000;0.0000;0.7086;-0.1813;-53.2617;34.8400 
1383.058;0.0010;0.0122;0.9922;0.0000;0.0000;0.0000;0.7086;-0.1813;-53.2617;34.8400 
1383.058;0.0010;0.0122;0.9922;0.0000;0.0000;0.0000;0.7086;-0.1813;-53.2617;34.8200 
1383.068;0.0010;0.0122;0.9922;0.0000;0.0000;0.0000;0.7086;-0.1813;-53.2617;34.8200 
1383.068;0.0010;0.0122;0.9922;0.0000;0.0000;0.0000;0.7086;-0.1813;-53.2617;34.8100 
1383.078;0.0010;0.0122;0.9922;0.0000;0.0000;0.0000;0.7086;-0.1813;-53.2617;34.8100 
1383.078;0.0010;0.0122;0.9922;0.0000;0.0000;0.0000;0.7086;-0.1813;-53.2617;34.8200 
1383.188;-0.0020;0.0137;0.9902;0.0000;0.0000;0.0000;0.7086;-0.1813;-53.2617;34.8200 
1383.188;-0.0020;0.0137;0.9902;0.0000;0.0000;0.0000;0.7086;-0.1758;-53.2617;34.8200 
1383.188;-0.0020;0.0137;0.9902;0.0000;0.0000;0.0000;0.7086;-0.1758;-53.2617;34.8100 
1383.188;-0.0020;0.0137;0.9902;0.0000;0.0000;0.0000;0.7086;-0.1758;-53.2617;34.8100 
1383.188;-0.0020;0.0137;0.9902;0.0000;0.0000;0.0000;0.7086;-0.1758;-53.2672;34.8400 
1383.188;-0.0020;0.0137;0.9902;0.0000;0.0000;0.0000;0.7086;-0.1758;-53.2672;34.8400 
1383.208;-0.0020;0.0137;0.9902;0.0000;0.0000;0.0000;0.7086;-0.1758;-53.2672;34.7800 
1383.208;0.0005;0.0146;0.9922;0.0000;0.0000;0.0000;0.7086;-0.1758;-53.2672;34.7800 
1383.208;0.0005;0.0146;0.9922;0.0000;0.0000;0.0000;0.7086;-0.1703;-53.2672;34.7800 
1383.208;0.0005;0.0146;0.9922;0.0000;0.0000;0.0000;0.7086;-0.1703;-53.2672;34.7800 
1383.208;0.0005;0.0146;0.9922;0.0000;0.0000;0.0000;0.7086;-0.1703;-53.2672;34.8100 
1383.208;0.0005;0.0146;0.9922;0.0000;0.0000;0.0000;0.7086;-0.1703;-53.2672;34.8100 
1383.208;0.0005;0.0146;0.9922;0.0000;0.0000;0.0000;0.7086;-0.1703;-53.2672;34.8100 
1383.208;0.0005;0.0146;0.9922;0.0000;0.0000;0.0000;0.7086;-0.1703;-53.2672;34.8100 
1383.208;0.0005;0.0146;0.9922;0.0000;0.0000;0.0000;0.7141;-0.1703;-53.2672;34.7400 
1383.208;-0.0010;0.0122;0.9902;-0.0610;-0.2441;-0.0610;0.7086;-0.1703;-53.2672;34.7400 
1383.208;-0.0010;0.0122;0.9902;-0.0610;-0.2441;-0.0610;0.7086;-0.1703;-53.2672;34.8400 
1383.208;-0.0010;0.0122;0.9902;-0.0610;-0.2441;-0.0610;0.7086;-0.1703;-53.2727;34.8400 
1383.208;-0.0010;0.0122;0.9902;-0.0610;-0.2441;-0.0610;0.7086;-0.1703;-53.2727;34.8400 
1383.208;-0.0010;0.0122;0.9902;-0.0610;-0.2441;-0.0610;0.7086;-0.1703;-53.2727;34.7800 
1383.208;-0.0010;0.0122;0.9902;-0.0610;-0.2441;-0.0610;0.7086;-0.1758;-53.2727;34.7800 
1383.208;-0.0010;0.0122;0.9902;-0.0610;-0.2441;-0.0610;0.7086;-0.1758;-53.2727;34.7400 
1383.208;-0.0010;0.0122;0.9902;-0.0610;-0.2441;-0.0610;0.7086;-0.1758;-53.2727;34.7400 
1383.208;0.0059;0.0127;0.9956;-0.1221;-0.4272;-0.1221;0.7086;-0.1758;-53.2727;34.7800 
1383.208;0.0059;0.0127;0.9956;-0.1221;-0.4272;-0.1221;0.7086;-0.1813;-53.2727;34.7800 
1383.208;0.0059;0.0127;0.9956;-0.1221;-0.4272;-0.1221;0.7086;-0.1813;-53.2727;34.8100 
1383.208;0.0059;0.0127;0.9956;-0.1221;-0.4272;-0.1221;0.7086;-0.1868;-53.2727;34.8100 
1383.218;0.0059;0.0127;0.9956;-0.1221;-0.4272;-0.1221;0.7086;-0.1868;-53.2782;34.7700 
1383.218;0.0059;0.0127;0.9956;-0.1221;-0.4272;-0.1221;0.7031;-0.1923;-53.2782;34.7700 
1383.228;0.0059;0.0127;0.9956;-0.1221;-0.4272;-0.1221;0.7031;-0.1923;-53.2782;34.8200 
1383.228;0.0059;0.0127;0.9956;-0.1221;-0.4272;-0.1221;0.7031;-0.1923;-53.2837;34.8200 
1383.238;0.0059;0.0098;0.9927;-0.0610;-0.4272;-0.2441;0.7031;-0.1978;-53.2837;34.8600 
1383.238;0.0059;0.0098;0.9927;-0.0610;-0.4272;-0.2441;0.7031;-0.1978;-53.2837;34.8600 
1383.248;0.0059;0.0098;0.9927;-0.0610;-0.4272;-0.2441;0.7031;-0.2032;-53.2837;34.8700 
1383.248;0.0059;0.0098;0.9927;-0.0610;-0.4272;-0.2441;0.7031;-0.2032;-53.2892;34.8700 
1383.258;0.0059;0.0098;0.9927;-0.0610;-0.4272;-0.2441;0.7031;-0.2087;-53.2892;34.8700 
1383.258;0.0059;0.0098;0.9927;-0.0610;-0.4272;-0.2441;0.7031;-0.2087;-53.2892;34.7800 
1383.268;0.0059;0.0098;0.9927;-0.0610;-0.4272;-0.2441;0.6976;-0.2142;-53.2892;34.7800 
1383.268;0.0059;0.0098;0.9927;-0.0610;-0.4272;-0.2441;0.6976;-0.2142;-53.2892;34.8500 
1383.278;0.0112;0.0088;0.9971;0.0000;-0.3662;-0.3662;0.6976;-0.2197;-53.2947;34.8500 
1383.278;0.0112;0.0088;0.9971;0.0000;-0.3662;-0.3662;0.6976;-0.2197;-53.3002;34.7700 
1383.298;0.0112;0.0088;0.9971;0.0000;-0.3662;-0.3662;0.6976;-0.2252;-53.3002;34.7700 
1383.298;0.0112;0.0088;0.9971;0.0000;-0.3662;-0.3662;0.6976;-0.2252;-53.3057;34.8300 
1383.397;0.0112;0.0088;0.9971;0.0000;-0.3662;-0.3662;0.6976;-0.2307;-53.3057;34.8300 
1383.418;0.0112;0.0088;0.9971;0.0000;-0.3662;-0.3662;0.6976;-0.2307;-53.3112;34.7900 
1383.418;0.0112;0.0088;0.9971;0.0000;-0.3662;-0.3662;0.6976;-0.2362;-53.3112;34.7900 
1383.418;0.0112;0.0088;0.9971;0.0000;-0.3662;-0.3662;0.6921;-0.2417;-53.3112;34.8300 
1383.418;0.0068;0.0078;0.9927;0.0000;-0.2441;-0.4272;0.6921;-0.2417;-53.3167;34.8300 
1383.418;0.0068;0.0078;0.9927;0.0000;-0.2441;-0.4272;0.6921;-0.2417;-53.3167;34.8500 
1383.418;0.0068;0.0078;0.9927;0.0000;-0.2441;-0.4272;0.6921;-0.2417;-53.3221;34.8500 
1383.418;0.0068;0.0078;0.9927;0.0000;-0.2441;-0.4272;0.6921;-0.2472;-53.3221;34.8500 
1383.418;0.0068;0.0078;0.9927;0.0000;-0.2441;-0.4272;0.6921;-0.2472;-53.3276;34.8400 
1383.418;0.0068;0.0078;0.9927;0.0000;-0.2441;-0.4272;0.6921;-0.2472;-53.3276;34.8400 
1383.418;0.0068;0.0078;0.9927;0.0000;-0.2441;-0.4272;0.6921;-0.2527;-53.3276;34.8000 
1383.418;0.0068;0.0078;0.9927;0.0000;-0.2441;-0.4272;0.6866;-0.2527;-53.3331;34.8000 
1383.418;0.0073;0.0103;0.9941;0.1831;0.0000;-0.3662;0.6921;-0.2527;-53.3331;34.8800 
1383.418;0.0073;0.0103;0.9941;0.1831;0.0000;-0.3662;0.6921;-0.2527;-53.3331;34.8800 
1383.418;0.0073;0.0103;0.9941;0.1831;0.0000;-0.3662;0.6921;-0.2527;-53.3331;34.8700 
1383.418;0.0073;0.0103;0.9941;0.1831;0.0000;-0.3662;0.6921;-0.2527;-53.3331;34.8700 
1383.418;0.0073;0.0103;0.9941;0.1831;0.0000;-0.3662;0.6921;-0.2527;-53.3386;34.8400 
1383.418;0.0073;0.0103;0.9941;0.1831;0.0000;-0.3662;0.6921;-0.2527;-53.3386;34.8400 
1383.418;0.0073;0.0103;0.9941;0.1831;0.0000;-0.3662;0.6921;-0.2582;-53.3386;34.8400 
1383.418;0.0073;0.0103;0.9941;0.1831;0.0000;-0.3662;0.6921;-0.2582;-53.3386;34.8400 
1383.418;0.0049;0.0112;0.9912;0.2441;0.0610;-0.3052;0.6976;-0.2582;-53.3386;34.8600 
1383.418;0.0049;0.0112;0.9912;0.2441;0.0610;-0.3052;0.6976;-0.2582;-53.3441;34.8600 
1383.418;0.0049;0.0112;0.9912;0.2441;0.0610;-0.3052;0.6976;-0.2527;-53.3441;34.7900 
1383.418;0.0049;0.0112;0.9912;0.2441;0.0610;-0.3052;0.6976;-0.2527;-53.3441;34.7900 
1383.418;0.0049;0.0112;0.9912;0.2441;0.0610;-0.3052;0.6976;-0.2527;-53.3441;34.7900 
1383.437;0.0049;0.0112;0.9912;0.2441;0.0610;-0.3052;0.7031;-0.2527;-53.3441;34.8300 
1383.437;0.0049;0.0112;0.9912;0.2441;0.0610;-0.3052;0.7031;-0.2527;-53.3441;34.8300 
1383.447;0.0049;0.0112;0.9912;0.2441;0.0610;-0.3052;0.7031;-0.2527;-53.3441;34.8300 
1383.447;0.0034;0.0127;0.9912;0.2441;0.1831;-0.1831;0.7031;-0.2527;-53.3441;34.8300 
1383.447;0.0034;0.0127;0.9912;0.2441;0.1831;-0.1831;0.7031;-0.2527;-53.3441;34.7600 
1383.447;0.0034;0.0127;0.9912;0.2441;0.1831;-0.1831;0.7086;-0.2527;-53.3441;34.7600 
1383.457;0.0034;0.0127;0.9912;0.2441;0.1831;-0.1831;0.7086;-0.2472;-53.3496;34.8000 
1383.467;0.0034;0.0127;0.9912;0.2441;0.1831;-0.1831;0.7086;-0.2472;-53.3496;34.8000 
1383.467;0.0034;0.0127;0.9912;0.2441;0.1831;-0.1831;0.7086;-0.2472;-53.3496;34.8400 
1383.467;0.0034;0.0127;0.9912;0.2441;0.1831;-0.1831;0.7141;-0.2472;-53.3496;34.8400 
1383.467;0.0034;0.0127;0.9912;0.2441;0.1831;-0.1831;0.7141;-0.2472;-53.3496;34.8000 
1383.477;0.0024;0.0137;0.9907;0.1831;0.1831;-0.0610;0.7141;-0.2417;-53.3496;34.8000 
1383.477;0.0024;0.0137;0.9907;0.1831;0.1831;-0.0610;0.7141;-0.2417;-53.3496;34.7800 
1383.487;0.0024;0.0137;0.9907;0.1831;0.1831;-0.0610;0.7196;-0.2417;-53.3496;34.7800 
1383.487;0.0024;0.0137;0.9907;0.1831;0.1831;-0.0610;0.7196;-0.2417;-53.3496;34.8700 
1383.497;0.0024;0.0137;0.9907;0.1831;0.1831;-0.0610;0.7196;-0.2417;-53.3551;34.8700 
1383.497;0.0024;0.0137;0.9907;0.1831;0.1831;-0.0610;0.7196;-0.2362;-53.3551;34.8700 
1383.618;0.0024;0.0137;0.9907;0.1831;0.1831;-0.0610;0.7196;-0.2362;-53.3606;34.8400 
1383.618;0.0024;0.0137;0.9907;0.1831;0.1831;-0.0610;0.7251;-0.2362;-53.3606;34.8400 
1383.637;0.0034;0.0132;0.9922;0.1221;0.1221;0.0000;0.7251;-0.2362;-53.3661;34.8200 
1383.637;0.0034;0.0132;0.9922;0.1221;0.1221;0.0000;0.7251;-0.2362;-53.3661;34.8200 
1383.637;0.0034;0.0132;0.9922;0.1221;0.1221;0.0000;0.7251;-0.2307;-53.3661;34.7900 
1383.637;0.0034;0.0132;0.9922;0.1221;0.1221;0.0000;0.7251;-0.2307;-53.3716;34.7900 
1383.637;0.0034;0.0132;0.9922;0.1221;0.1221;0.0000;0.7251;-0.2307;-53.3716;34.8400 
1383.637;0.0034;0.0132;0.9922;0.1221;0.1221;0.0000;0.7251;-0.2307;-53.3716;34.8400 
1383.637;0.0034;0.0132;0.9922;0.1221;0.1221;0.0000;0.7251;-0.2307;-53.3716;34.8500 
1383.637;0.0034;0.0132;0.9922;0.1221;0.1221;0.0000;0.7306;-0.2307;-53.3661;34.8500 
1383.637;0.0015;0.0122;0.9912;0.0000;0.0000;0.0000;0.7306;-0.2307;-53.3661;34.8800 
1383.637;0.0015;0.0122;0.9912;0.0000;0.0000;0.0000;0.7306;-0.2307;-53.3661;34.8800 
1383.637;0.0015;0.0122;0.9912;0.0000;0.0000;0.0000;0.7306;-0.2307;-53.3661;34.7900 
1383.637;0.0015;0.0122;0.9912;0.0000;0.0000;0.0000;0.7306;-0.2252;-53.3661;34.7900 
1383.637;0.0015;0.0122;0.9912;0.0000;0.0000;0.0000;0.7306;-0.2252;-53.3661;34.7800 
1383.637;0.0015;0.0122;0.9912;0.0000;0.0000;0.0000;0.7306;-0.2252;-53.3661;34.7800 
1383.637;0.0015;0.0122;0.9912;0.0000;0.0000;0.0000;0.7306;-0.2252;-53.3661;34.7800 
1383.637;0.0015;0.0122;0.9912;0.0000;0.0000;0.0000;0.7306;-0.2252;-53.3661;34.8700 
1383.637;0.0024;0.0132;0.9922;0.0000;0.0000;0.0000;0.7306;-0.2252;-53.3661;34.8700 
1383.637;0.0024;0.0132;0.9922;0.0000;0.0000;0.0000;0.7306;-0.2252;-53.3661;34.8200 
1383.637;0.0024;0.0132;0.9922;0.0000;0.0000;0.0000;0.7306;-0.2252;-53.3661;34.8200 
1383.637;0.0024;0.0132;0.9922;0.0000;0.0000;0.0000;0.7306;-0.2252;-53.3661;34.8100 
1383.637;0.0024;0.0132;0.9922;0.0000;0.0000;0.0000;0.7306;-0.2252;-53.3661;34.8100 
1383.637;0.0024;0.0132;0.9922;0.0000;0.0000;0.0000;0.7306;-0.2252;-53.3661;34.8100 
1383.637;0.0024;0.0132;0.9922;0.0000;0.0000;0.0000;0.7306;-0.2252;-53.3606;34.8100 
1383.637;0.0024;0.0132;0.9922;0.0000;0.0000;0.0000;0.7306;-0.2252;-53.3551;34.8100 
1383.637;0.0034;0.0132;0.9927;0.0000;-0.0610;0.0000;0.7306;-0.2252;-53.3551;34.8100 
1383.647;0.0034;0.0132;0.9927;0.0000;-0.0610;0.0000;0.7306;-0.2252;-53.3551;34.7900 
1383.647;0.0034;0.0132;0.9927;0.0000;-0.0610;0.0000;0.7306;-0.2252;-53.3496;34.7900 
1383.667;0.0034;0.0132;0.9927;0.0000;-0.0610;0.0000;0.7306;-0.2252;-53.3496;34.8300 
1383.667;0.0034;0.0132;0.9927;0.0000;-0.0610;0.0000;0.7306;-0.2252;-53.3441;34.8300 
1383.687;0.0034;0.0132;0.9927;0.0000;-0.0610;0.0000;0.7306;-0.2252;-53.3441;34.8300 
1383.687;0.0034;0.0132;0.9927;0.0000;-0.0610;0.0000;0.7306;-0.2252;-53.3386;34.8300 
1383.687;0.0034;0.0132;0.9927;0.0000;-0.0610;0.0000;0.7306;-0.2252;-53.3386;34.8300 
1383.687;0.0034;0.0117;0.9917;0.0000;-0.1221;0.0000;0.7306;-0.2252;-53.3386;34.8600 
1383.687;0.0034;0.0117;0.9917;0.0000;-0.1221;0.0000;0.7306;-0.2252;-53.3386;34.8600 
1383.687;0.0034;0.0117;0.9917;0.0000;-0.1221;0.0000;0.7306;-0.2252;-53.3386;34.8200 
1383.687;0.0034;0.0117;0.9917;0.0000;-0.1221;0.0000;0.7306;-0.2252;-53.3386;34.8200 
1383.687;0.0034;0.0117;0.9917;0.0000;-0.1221;0.0000;0.7306;-0.2307;-53.3386;34.7700 
1383.697;0.0034;0.0117;0.9917;0.0000;-0.1221;0.0000;0.7306;-0.2307;-53.3441;34.7700 
1383.697;0.0034;0.0117;0.9917;0.0000;-0.1221;0.0000;0.7306;-0.2307;-53.3441;34.8400 
1383.717;0.0034;0.0117;0.9917;0.0000;-0.1221;0.0000;0.7306;-0.2307;-53.3441;34.8400 
1383.717;0.0054;0.0107;0.9937;-0.0610;-0.1221;0.0000;0.7306;-0.2307;-53.3441;34.8400 
1383.727;0.0054;0.0107;0.9937;-0.0610;-0.1221;0.0000;0.7251;-0.2307;-53.3496;34.8400 
1383.727;0.0054;0.0107;0.9937;-0.0610;-0.1221;0.0000;0.7251;-0.2307;-53.3496;34.8200 
1383.727;0.0054;0.0107;0.9937;-0.0610;-0.1221;0.0000;0.7251;-0.2307;-53.3496;34.8200 
1383.727;0.0054;0.0107;0.9937;-0.0610;-0.1221;0.0000;0.7251;-0.2362;-53.3496;34.7700 
1383.827;0.0054;0.0107;0.9937;-0.0610;-0.1221;0.0000;0.7251;-0.2362;-53.3496;34.7700 
1383.827;0.0054;0.0107;0.9937;-0.0610;-0.1221;0.0000;0.7251;-0.2362;-53.3496;34.7700 
1383.837;0.0054;0.0107;0.9937;-0.0610;-0.1221;0.0000;0.7251;-0.2362;-53.3496;34.7700 
1383.837;0.0054;0.0107;0.9922;-0.0610;-0.1221;0.0000;0.7251;-0.2362;-53.3496;34.7700 
1383.837;0.0054;0.0107;0.9922;-0.0610;-0.1221;0.0000;0.7251;-0.2362;-53.3441;34.8700 
1383.837;0.0054;0.0107;0.9922;-0.0610;-0.1221;0.0000;0.7196;-0.2362;-53.3441;34.8700 
1383.837;0.0054;0.0107;0.9922;-0.0610;-0.1221;0.0000;0.7196;-0.2417;-53.3441;34.8600 
1383.837;0.0054;0.0107;0.9922;-0.0610;-0.1221;0.0000;0.7196;-0.2417;-53.3441;34.8600 
1383.837;0.0054;0.0107;0.9922;-0.0610;-0.1221;0.0000;0.7196;-0.2417;-53.3441;34.8700 
1383.837;0.0054;0.0107;0.9922;-0.0610;-0.1221;0.0000;0.7196;-0.2417;-53.3441;34.8700 
1383.837;0.0054;0.0107;0.9922;-0.0610;-0.1221;0.0000;0.7196;-0.2417;-53.3386;34.8400 
1383.837;0.0059;0.0112;0.9927;0.0000;-0.0610;0.0000;0.7196;-0.2417;-53.3386;34.8400 
1383.837;0.0059;0.0112;0.9927;0.0000;-0.0610;0.0000;0.7196;-0.2417;-53.3386;34.7900 
1383.837;0.0059;0.0112;0.9927;0.0000;-0.0610;0.0000;0.7196;-0.2472;-53.3331;34.7900 
1383.837;0.0059;0.0112;0.9927;0.0000;-0.0610;0.0000;0.7196;-0.2472;-53.3331;34.8200 
1383.837;0.0059;0.0112;0.9927;0.0000;-0.0610;0.0000;0.7196;-0.2472;-53.3331;34.8200 
1383.837;0.0059;0.0112;0.9927;0.0000;-0.0610;0.0000;0.7196;-0.2472;-53.3276;34.8100 
1383.837;0.0059;0.0112;0.9927;0.0000;-0.0610;0.0000;0.7196;-0.2472;-53.3276;34.8100 
1383.837;0.0059;0.0112;0.9927;0.0000;-0.0610;0.0000;0.7196;-0.2472;-53.3276;34.8100 
1383.837;0.0044;0.0112;0.9917;0.0000;0.0000;0.0000;0.7196;-0.2472;-53.3276;34.8500 
1383.837;0.0044;0.0112;0.9917;0.0000;0.0000;0.0000;0.7196;-0.2472;-53.3276;34.8500 
1383.847;0.0044;0.0112;0.9917;0.0000;0.0000;0.0000;0.7196;-0.2472;-53.3276;34.7900 
1383.847;0.0044;0.0112;0.9917;0.0000;0.0000;0.0000;0.7141;-0.2472;-53.3276;34.7900 
1383.857;0.0044;0.0112;0.9917;0.0000;0.0000;0.0000;0.7141;-0.2472;-53.3276;34.7600 
1383.857;0.0044;0.0112;0.9917;0.0000;0.0000;0.0000;0.7141;-0.2472;-53.3276;34.7600 
1383.867;0.0044;0.0112;0.9917;0.0000;0.0000;0.0000;0.7141;-0.2472;-53.3276;34.8500 
1383.867;0.0044;0.0112;0.9917;0.0000;0.0000;0.0000;0.7141;-0.2472;-53.3276;34.8500 
1383.877;0.0044;0.0112;0.9922;0.0000;0.0000;0.0000;0.7141;-0.2472;-53.3276;34.8600 
1383.877;0.0044;0.0112;0.9922;0.0000;0.0000;0.0000;0.7141;-0.2472;-53.3276;34.8600 
1383.957;0.0044;0.0112;0.9922;0.0000;0.0000;0.0000;0.7141;-0.2472;-53.3276;34.7900 
1383.957;0.0044;0.0112;0.9922;0.0000;0.0000;0.0000;0.7141;-0.2472;-53.3276;34.7900 
1383.977;0.0044;0.0112;0.9922;0.0000;0.0000;0.0000;0.7141;-0.2472;-53.3276;34.8400 
1383.977;0.0044;0.0112;0.9922;0.0000;0.0000;0.0000;0.7141;-0.2472;-53.3276;34.8400 
1383.977;0.0044;0.0112;0.9922;0.0000;0.0000;0.0000;0.7141;-0.2472;-53.3276;34.8900 
1383.977;0.0044;0.0112;0.9922;0.0000;0.0000;0.0000;0.7141;-0.2472;-53.3276;34.8900 
1383.977;0.0029;0.0112;0.9912;0.0000;0.0000;0.0000;0.7141;-0.2472;-53.3276;34.8900 
1383.977;0.0029;0.0112;0.9912;0.0000;0.0000;0.0000;0.7141;-0.2472;-53.3276;34.8100 
1383.977;0.0029;0.0112;0.9912;0.0000;0.0000;0.0000;0.7141;-0.2472;-53.3276;34.8100 
1383.977;0.0029;0.0112;0.9912;0.0000;0.0000;0.0000;0.7141;-0.2472;-53.3276;34.8700 
1383.977;0.0029;0.0112;0.9912;0.0000;0.0000;0.0000;0.7141;-0.2472;-53.3331;34.8700 
1383.977;0.0029;0.0112;0.9912;0.0000;0.0000;0.0000;0.7141;-0.2472;-53.3331;34.7700 
1383.977;0.0029;0.0112;0.9912;0.0000;0.0000;0.0000;0.7141;-0.2472;-53.3331;34.7700 
1383.977;0.0029;0.0112;0.9912;0.0000;0.0000;0.0000;0.7141;-0.2472;-53.3331;34.7900 
1383.977;0.0039;0.0117;0.9927;0.0000;0.0610;0.0000;0.7141;-0.2472;-53.3331;34.7900 
1383.977;0.0039;0.0117;0.9927;0.0000;0.0610;0.0000;0.7141;-0.2472;-53.3331;34.8800 
1383.977;0.0039;0.0117;0.9927;0.0000;0.0610;0.0000;0.7141;-0.2472;-53.3331;34.8800 
1383.977;0.0039;0.0117;0.9927;0.0000;0.0610;0.0000;0.7141;-0.2417;-53.3331;34.7700 
1383.977;0.0039;0.0117;0.9927;0.0000;0.0610;0.0000;0.7141;-0.2417;-53.3331;34.7700 
1383.997;0.0039;0.0117;0.9927;0.0000;0.0610;0.0000;0.7141;-0.2417;-53.3331;34.8200 
1383.997;0.0039;0.0117;0.9927;0.0000;0.0610;0.0000;0.7141;-0.2417;-53.3331;34.8200 
1383.997;0.0039;0.0117;0.9927;0.0000;0.0610;0.0000;0.7141;-0.2417;-53.3331;34.8500 
1383.997;-0.1064;0.0210;1.0264;0.0610;0.0000;0.0000;0.7141;-0.2252;-53.3276;34.8500 
1384.007;-0.1064;0.0210;1.0264;0.0610;0.0000;0.0000;0.7141;-0.2032;-53.3276;34.8500 
1384.007;-0.1064;0.0210;1.0264;0.0610;0.0000;0.0000;0.7196;-0.1868;-53.3276;34.7500 
1384.027;-0.1064;0.0210;1.0264;0.0610;0.0000;0.0000;0.7196;-0.1703;-53.3221;34.7500 
1384.027;-0.1064;0.0210;1.0264;0.0610;0.0000;0.0000;0.7196;-0.1483;-53.3221;34.7900 
1384.037;-0.1064;0.0210;1.0264;0.0610;0.0000;0.0000;0.7196;-0.1318;-53.3221;34.7900 
1384.037;-0.1064;0.0210;1.0264;0.0610;0.0000;0.0000;0.7251;-0.1154;-53.3167;34.8100 
1384.037;-0.1064;0.0210;1.0264;0.0610;0.0000;0.0000;0.7251;-0.0989;-53.3167;34.8100 
1384.037;-0.4824;0.0371;1.0337;0.0000;0.4883;0.1831;0.7251;-0.0165;-53.3057;34.8100 
1384.047;-0.4824;0.0371;1.0337;0.0000;0.4883;0.1831;0.7306;0.0549;-53.3002;34.8100 
1384.047;-0.4824;0.0371;1.0337;0.0000;0.4883;0.1831;0.7306;0.1318;-53.2892;34.8200 
1384.067;-0.4824;0.0371;1.0337;0.0000;0.4883;0.1831;0.7306;0.2032;-53.2782;34.8200 
1384.067;-0.4824;0.0371;1.0337;0.0000;0.4883;0.1831;0.7361;0.2802;-53.2727;34.8100 
1384.067;-0.4824;0.0371;1.0337;0.0000;0.4883;0.1831;0.7361;0.3571;-53.2617;34.8100 
1384.067;-0.4824;0.0371;1.0337;0.0000;0.4883;0.1831;0.7361;0.4340;-53.2507;34.8700 
1384.077;-0.4824;0.0371;1.0337;0.0000;0.4883;0.1831;0.7416;0.5109;-53.2452;34.8700 
1384.077;-0.9561;0.0781;0.9927;-0.3662;2.0142;1.0986;0.7361;0.6482;-53.2123;34.8700 
1384.087;-0.9561;0.0781;0.9927;-0.3662;2.0142;1.0986;0.7361;0.7855;-53.1848;34.8300 
1384.087;-0.9561;0.0781;0.9927;-0.3662;2.0142;1.0986;0.7361;0.9229;-53.1573;34.8300 
1384.087;-0.9561;0.0781;0.9927;-0.3662;2.0142;1.0986;0.7306;1.0547;-53.1299;34.8200 
1384.087;-0.9561;0.0781;0.9927;-0.3662;2.0142;1.0986;0.7306;1.1920;-53.1079;34.8200 
1384.107;-0.9561;0.0781;0.9927;-0.3662;2.0142;1.0986;0.7306;1.3293;-53.0804;34.8100 
1384.107;-0.9561;0.0781;0.9927;-0.3662;2.0142;1.0986;0.7306;1.4612;-53.0530;34.8100 
1384.127;-0.9561;0.0781;0.9927;-0.3662;2.0142;1.0986;0.7306;1.5985;-53.0255;34.8400 
1384.127;-1.6104;0.1567;0.9448;-0.6104;3.8452;2.8076;0.7141;1.7853;-52.9651;34.8400 
1384.127;-1.6104;0.1567;0.9448;-0.6104;3.8452;2.8076;0.7031;1.9666;-52.9102;34.8800 
1384.127;-1.6104;0.1567;0.9448;-0.6104;3.8452;2.8076;0.6921;2.1533;-52.8497;34.8800 
1384.227;-1.6104;0.1567;0.9448;-0.6104;3.8452;2.8076;0.6812;2.3346;-52.7948;34.7700 
1384.237;-1.6104;0.1567;0.9448;-0.6104;3.8452;2.8076;0.6702;2.5214;-52.7399;34.7700 
1384.237;-1.6104;0.1567;0.9448;-0.6104;3.8452;2.8076;0.6592;2.7026;-52.6794;34.8500 
1384.237;-1.6104;0.1567;0.9448;-0.6104;3.8452;2.8076;0.6482;2.8839;-52.6245;34.8500 
1384.237;-1.6104;0.1567;0.9448;-0.6104;3.8452;2.8076;0.6372;3.0707;-52.5641;34.8000 
1384.237;-2.0845;0.2109;0.9238;-0.7935;4.5166;4.3945;0.6207;3.2684;-52.4872;34.8000 
1384.237;-2.0845;0.2109;0.9238;-0.7935;4.5166;4.3945;0.5988;3.4717;-52.4048;34.8000 
1384.237;-2.0845;0.2109;0.9238;-0.7935;4.5166;4.3945;0.5768;3.6694;-52.3279;34.8400 
1384.237;-2.0845;0.2109;0.9238;-0.7935;4.5166;4.3945;0.5603;3.8727;-52.2510;34.8400 
1384.237;-2.0845;0.2109;0.9238;-0.7935;4.5166;4.3945;0.5383;4.0704;-52.1686;34.8300 
1384.237;-2.0845;0.2109;0.9238;-0.7935;4.5166;4.3945;0.5164;4.2682;-52.0917;34.8300 
1384.237;-2.0845;0.2109;0.9238;-0.7935;4.5166;4.3945;0.4999;4.4659;-52.0093;34.7700 
1384.237;-2.0845;0.2109;0.9238;-0.7935;4.5166;4.3945;0.4779;4.6637;-51.9324;34.7700 
1384.237;-2.3213;0.2505;0.8921;-0.7935;3.4790;4.9438;0.4559;4.8669;-51.8390;34.8100 
1384.237;-2.3213;0.2505;0.8921;-0.7935;3.4790;4.9438;0.4285;5.0647;-51.7511;34.8100 
1384.237;-2.3213;0.2505;0.8921;-0.7935;3.4790;4.9438;0.4065;5.2625;-51.6632;34.8500 
1384.237;-2.3213;0.2505;0.8921;-0.7935;3.4790;4.9438;0.3845;5.4602;-51.5753;34.8500 
1384.237;-2.3213;0.2505;0.8921;-0.7935;3.4790;4.9438;0.3625;5.6580;-51.4819;34.8200 
1384.237;-2.3213;0.2505;0.8921;-0.7935;3.4790;4.9438;0.3406;5.8557;-51.3940;34.8200 
1384.237;-2.3213;0.2505;0.8921;-0.7935;3.4790;4.9438;0.3186;6.0480;-51.3062;34.7600 
1384.237;-2.3213;0.2505;0.8921;-0.7935;3.4790;4.9438;0.2966;6.2457;-51.2183;34.7600 
1384.237;-2.0913;0.2212;0.8477;-0.4272;0.9155;4.2114;0.2747;6.4270;-51.1414;34.8400 
1384.237;-2.0913;0.2212;0.8477;-0.4272;0.9155;4.2114;0.2582;6.6028;-51.0590;34.8400 
1384.257;-2.0913;0.2212;0.8477;-0.4272;0.9155;4.2114;0.2417;6.7841;-50.9821;34.8400 
1384.257;-2.0913;0.2212;0.8477;-0.4272;0.9155;4.2114;0.2307;6.9653;-50.9052;34.7200 
1384.267;-2.0913;0.2212;0.8477;-0.4272;0.9155;4.2114;0.2142;7.1411;-50.8282;34.7200 
1384.277;-2.0913;0.2212;0.8477;-0.4272;0.9155;4.2114;0.1978;7.3224;-50.7458;34.7700 
1384.277;-2.0913;0.2212;0.8477;-0.4272;0.9155;4.2114;0.1868;7.4982;-50.6689;34.7700 
1384.277;-2.0913;0.2212;0.8477;-0.4272;0.9155;4.2114;0.1703;7.6740;-50.5920;34.7700 
1384.277;-1.6348;0.1479;0.7305;0.3052;-2.4414;2.5635;0.1593;7.8278;-50.5261;34.7700 
1384.277;-1.6348;0.1479;0.7305;0.3052;-2.4414;2.5635;0.1483;7.9871;-50.4602;34.8600 
1384.287;-1.6348;0.1479;0.7305;0.3052;-2.4414;2.5635;0.1373;8.1409;-50.3998;34.8600 
1384.307;-1.6348;0.1479;0.7305;0.3052;-2.4414;2.5635;0.1263;8.2947;-50.3339;34.8600 
1384.307;-1.6348;0.1479;0.7305;0.3052;-2.4414;2.5635;0.1154;8.4485;-50.2679;34.8600 
1384.307;-1.6348;0.1479;0.7305;0.3052;-2.4414;2.5635;0.1044;8.5968;-50.2020;34.8600 
1384.307;-1.6348;0.1479;0.7305;0.3052;-2.4414;2.5635;0.0934;8.7506;-50.1361;34.8600 
1384.317;-1.6348;0.1479;0.7305;0.3052;-2.4414;2.5635;0.0824;8.9044;-50.0702;34.8400 
1384.317;-0.9424;0.0586;0.5093;1.7090;-5.1880;1.4648;0.0769;9.0308;-50.0153;34.8400 
1384.417;-0.9424;0.0586;0.5093;1.7090;-5.1880;1.4648;0.0769;9.1571;-49.9658;34.8200 
1384.417;-0.9424;0.0586;0.5093;1.7090;-5.1880;1.4648;0.0714;9.2834;-49.9164;34.8200 
1384.417;-0.9424;0.0586;0.5093;1.7090;-5.1880;1.4648;0.0714;9.4043;-49.8615;34.8200 
1384.417;-0.9424;0.0586;0.5093;1.7090;-5.1880;1.4648;0.0659;9.5306;-49.8065;34.8600 
1384.437;-0.9424;0.0586;0.5093;1.7090;-5.1880;1.4648;0.0659;9.6570;-49.7571;34.8600 
1384.437;-0.9424;0.0586;0.5093;1.7090;-5.1880;1.4648;0.0604;9.7833;-49.7076;34.8600 
1384.437;-0.9424;0.0586;0.5093;1.7090;-5.1880;1.4648;0.0604;9.9042;-49.6527;34.8600 
1384.437;-0.2954;-0.0171;0.2900;3.5400;-7.1411;1.8921;0.0604;9.9756;-49.6252;34.8200 
1384.437;-0.2954;-0.0171;0.2900;3.5400;-7.1411;1.8921;0.0659;10.0415;-49.5978;34.8200 
1384.437;-0.2954;-0.0171;0.2900;3.5400;-7.1411;1.8921;0.0714;10.1129;-49.5703;34.8100 
1384.437;-0.2954;-0.0171;0.2900;3.5400;-7.1411;1.8921;0.0769;10.1788;-49.5428;34.8100 
1384.437;-0.2954;-0.0171;0.2900;3.5400;-7.1411;1.8921;0.0824;10.2448;-49.5154;34.8700 
1384.437;-0.2954;-0.0171;0.2900;3.5400;-7.1411;1.8921;0.0879;10.3162;-49.4879;34.8700 
1384.437;-0.2954;-0.0171;0.2900;3.5400;-7.1411;1.8921;0.0934;10.3821;-49.4604;34.8400 
1384.437;-0.2954;-0.0171;0.2900;3.5400;-7.1411;1.8921;0.0989;10.4480;-49.4330;34.8400 
1384.437;0.1660;-0.0679;0.1328;5.4932;-8.5449;4.0894;0.0659;10.2393;-49.4275;34.7700 
1384.437;0.1660;-0.0679;0.1328;5.4932;-8.5449;4.0894;0.0330;10.0250;-49.4220;34.7700 
1384.437;0.1660;-0.0679;0.1328;5.4932;-8.5449;4.0894;0.0000;9.8163;-49.4165;34.7700 
1384.437;0.1660;-0.0679;0.1328;5.4932;-8.5449;4.0894;-0.0275;9.6075;-49.4110;34.7700 
1384.437;0.1660;-0.0679;0.1328;5.4932;-8.5449;4.0894;-0.0604;9.3988;-49.4000;34.7700 
1384.437;0.1660;-0.0679;0.1328;5.4932;-8.5449;4.0894;-0.0934;9.1901;-49.3945;34.8400 
1384.437;0.1660;-0.0679;0.1328;5.4932;-8.5449;4.0894;-0.1263;8.9813;-49.3835;34.8400 
1384.437;0.1660;-0.0679;0.1328;5.4932;-8.5449;4.0894;-0.1538;8.7726;-49.3671;34.8400 
1384.437;0.4170;-0.0942;0.0542;6.9580;-8.7891;7.8125;-0.0879;8.4814;-49.2517;34.8400 
1384.437;0.4170;-0.0942;0.0542;6.9580;-8.7891;7.8125;-0.0275;8.1958;-49.1364;34.7800 
1384.447;0.4170;-0.0942;0.0542;6.9580;-8.7891;7.8125;0.0275;7.9047;-49.0210;34.7800 
1384.447;0.4170;-0.0942;0.0542;6.9580;-8.7891;7.8125;0.0879;7.6190;-48.9056;34.8000 
1384.467;0.4170;-0.0942;0.0542;6.9580;-8.7891;7.8125;0.1483;7.3334;-48.7903;34.8000 
1384.467;0.4170;-0.0942;0.0542;6.9580;-8.7891;7.8125;0.2087;7.0422;-48.6749;34.8700 
1384.477;0.4170;-0.0942;0.0542;6.9580;-8.7891;7.8125;0.2692;6.7566;-48.5596;34.8700 
1384.477;0.4170;-0.0942;0.0542;6.9580;-8.7891;7.8125;0.3296;6.4709;-48.4442;34.8400 
1384.477;0.4961;-0.1040;0.0449;7.4463;-7.3242;12.5732;0.4065;6.1908;-48.2959;34.8400 
1384.477;0.4961;-0.1040;0.0449;7.4463;-7.3242;12.5732;0.4889;5.9106;-48.1476;34.8200 
1384.507;0.4961;-0.1040;0.0449;7.4463;-7.3242;12.5732;0.5658;5.6305;-47.9993;34.8200 
1384.507;0.4961;-0.1040;0.0449;7.4463;-7.3242;12.5732;0.6427;5.3558;-47.8510;34.8200 
1384.517;0.4961;-0.1040;0.0449;7.4463;-7.3242;12.5732;0.7251;5.0757;-47.6971;34.8700 
1384.517;0.4961;-0.1040;0.0449;7.4463;-7.3242;12.5732;0.8020;4.7955;-47.5488;34.8700 
1384.517;0.4961;-0.1040;0.0449;7.4463;-7.3242;12.5732;0.8734;4.5209;-47.4005;34.8100 
1384.517;0.4961;-0.1040;0.0449;7.4463;-7.3242;12.5732;0.9503;4.2407;-47.2577;34.8100 
1384.527;0.4683;-0.1079;0.0864;6.7139;-4.1504;18.0054;0.9943;3.9880;-47.1039;34.7800 
1384.527;0.4683;-0.1079;0.0864;6.7139;-4.1504;18.0054;1.0382;3.7354;-46.9556;34.7800 
1384.527;0.4683;-0.1079;0.0864;6.7139;-4.1504;18.0054;1.0822;3.4827;-46.8018;34.8500 
1384.527;0.4683;-0.1079;0.0864;6.7139;-4.1504;18.0054;1.1206;3.2300;-46.6479;34.8500 
1384.617;0.4683;-0.1079;0.0864;6.7139;-4.1504;18.0054;1.1700;2.9828;-46.4941;34.7900 
1384.617;0.4683;-0.1079;0.0864;6.7139;-4.1504;18.0054;1.2085;2.7301;-46.3403;34.7900 
1384.627;0.4683;-0.1079;0.0864;6.7139;-4.1504;18.0054;1.2524;2.4829;-46.1865;34.8400 
1384.627;0.4683;-0.1079;0.0864;6.7139;-4.1504;18.0054;1.2964;2.2302;-46.0327;34.8400 
1384.627;0.3687;-0.1128;0.5151;4.0283;-0.4272;23.9868;1.2799;2.1149;-45.9229;34.8700 
1384.627;0.3687;-0.1128;0.5151;4.0283;-0.4272;23.9868;1.2689;2.0050;-45.8075;34.8700 
1384.627;0.3687;-0.1128;0.5151;4.0283;-0.4272;23.9868;1.2579;1.8896;-45.6921;34.8400 
1384.627;0.3687;-0.1128;0.5151;4.0283;-0.4272;23.9868;1.2469;1.7743;-45.5768;34.8400 
1384.627;0.3687;-0.1128;0.5151;4.0283;-0.4272;23.9868;1.2305;1.6644;-45.4614;34.8400 
1384.627;0.3687;-0.1128;0.5151;4.0283;-0.4272;23.9868;1.2195;1.5491;-45.3461;34.8000 
1384.627;0.3687;-0.1128;0.5151;4.0283;-0.4272;23.9868;1.2085;1.4337;-45.2252;34.8000 
1384.627;0.3687;-0.1128;0.5151;4.0283;-0.4272;23.9868;1.1975;1.3239;-45.1044;34.8300 
1384.627;0.2373;-0.1089;0.6250;-3.7842;2.6855;31.0669;1.1481;1.2689;-44.9561;34.8300 
1384.627;0.2373;-0.1089;0.6250;-3.7842;2.6855;31.0669;1.1041;1.2140;-44.8022;34.8500 
1384.627;0.2373;-0.1089;0.6250;-3.7842;2.6855;31.0669;1.0547;1.1591;-44.6484;34.8500 
1384.627;0.2373;-0.1089;0.6250;-3.7842;2.6855;31.0669;1.0052;1.1041;-44.4946;34.8400 
1384.627;0.2373;-0.1089;0.6250;-3.7842;2.6855;31.0669;0.9613;1.0492;-44.3408;34.8400 
1384.637;0.2373;-0.1089;0.6250;-3.7842;2.6855;31.0669;0.9119;0.9998;-44.1870;34.8600 
1384.637;0.2373;-0.1089;0.6250;-3.7842;2.6855;31.0669;0.8679;0.9448;-44.0277;34.8600 
1384.637;0.2373;-0.1089;0.6250;-3.7842;2.6855;31.0669;0.8185;0.8899;-43.8684;34.8700 
1384.637;0.0513;-0.1431;0.9956;-17.8223;8.8501;39.1235;0.7086;0.9174;-43.6652;34.8700 
1384.647;0.0513;-0.1431;0.9956;-17.8223;8.8501;39.1235;0.5988;0.9503;-43.4619;34.8000 
1384.647;0.0513;-0.1431;0.9956;-17.8223;8.8501;39.1235;0.4834;0.9778;-43.2587;34.8000 
1384.667;0.0513;-0.1431;0.9956;-17.8223;8.8501;39.1235;0.3735;1.0107;-43.0499;34.8400 
1384.667;0.0513;-0.1431;0.9956;-17.8223;8.8501;39.1235;0.2637;1.0382;-42.8467;34.8400 
1384.667;0.0513;-0.1431;0.9956;-17.8223;8.8501;39.1235;0.1538;1.0712;-42.6379;34.8400 
1384.667;0.0513;-0.1431;0.9956;-17.8223;8.8501;39.1235;0.0439;1.0986;-42.4292;34.8400 
1384.677;0.0513;-0.1431;0.9956;-17.8223;8.8501;39.1235;-0.0604;1.1316;-42.2205;34.8400 
1384.677;-0.1152;-0.1733;0.9751;-34.6680;19.1650;46.6309;-0.2582;1.2415;-41.9678;34.8200 
1384.687;-0.1152;-0.1733;0.9751;-34.6680;19.1650;46.6309;-0.4559;1.3568;-41.7206;34.8200 
1384.687;-0.1152;-0.1733;0.9751;-34.6680;19.1650;46.6309;-0.6537;1.4667;-41.4679;34.8100 
1384.697;-0.1152;-0.1733;0.9751;-34.6680;19.1650;46.6309;-0.8459;1.5820;-41.2152;34.8100 
1384.697;-0.1152;-0.1733;0.9751;-34.6680;19.1650;46.6309;-1.0437;1.6919;-40.9680;34.8400 
1384.717;-0.1152;-0.1733;0.9751;-34.6680;19.1650;46.6309;-1.2360;1.8073;-40.7208;34.8400 
1384.717;-0.1152;-0.1733;0.9751;-34.6680;19.1650;46.6309;-1.4282;1.9226;-40.4681;34.8400 
1384.717;-0.1152;-0.1733;0.9751;-34.6680;19.1650;46.6309;-1.6205;2.0325;-40.2209;34.8400 
1384.717;-0.2573;-0.2280;0.8262;-49.4995;29.2358;51.1475;-1.9006;2.2302;-39.9463;34.8500 
1384.827;-0.2573;-0.2280;0.8262;-49.4995;29.2358;51.1475;-2.1808;2.4280;-39.6771;34.8500 
1384.827;-0.2573;-0.2280;0.8262;-49.4995;29.2358;51.1475;-2.4554;2.6202;-39.4025;34.8300 
1384.837;-0.2573;-0.2280;0.8262;-49.4995;29.2358;51.1475;-2.7301;2.8180;-39.1333;34.8300 
1384.837;-0.2573;-0.2280;0.8262;-49.4995;29.2358;51.1475;-3.0048;3.0157;-38.8696;34.8600 
1384.837;-0.2573;-0.2280;0.8262;-49.4995;29.2358;51.1475;-3.2794;3.2135;-38.6005;34.8600 
1384.837;-0.2573;-0.2280;0.8262;-49.4995;29.2358;51.1475;-3.5486;3.4167;-38.3368;34.8600 
1384.837;-0.2573;-0.2280;0.8262;-49.4995;29.2358;51.1475;-3.8177;3.6145;-38.0676;34.8500 
1384.837;-0.3418;-0.3105;0.6538;-55.4199;32.4707;49.9268;-4.1418;3.8562;-37.8094;34.8500 
1384.837;-0.3418;-0.3105;0.6538;-55.4199;32.4707;49.9268;-4.4659;4.0979;-37.5513;34.9100 
1384.837;-0.3418;-0.3105;0.6538;-55.4199;32.4707;49.9268;-4.7845;4.3396;-37.2986;34.9100 
1384.837;-0.3418;-0.3105;0.6538;-55.4199;32.4707;49.9268;-5.1031;4.5813;-37.0404;34.8000 
1384.837;-0.3418;-0.3105;0.6538;-55.4199;32.4707;49.9268;-5.4218;4.8230;-36.7932;34.8000 
1384.837;-0.3418;-0.3105;0.6538;-55.4199;32.4707;49.9268;-5.7349;5.0702;-36.5405;34.7900 
1384.837;-0.3418;-0.3105;0.6538;-55.4199;32.4707;49.9268;-6.0480;5.3119;-36.2988;34.7900 
1384.837;-0.3418;-0.3105;0.6538;-55.4199;32.4707;49.9268;-6.3611;5.5591;-36.0571;34.8000 
1384.837;-0.1055;-0.5483;0.6738;-47.1191;19.3481;41.1987;-6.6742;5.6854;-35.8704;34.8000 
1384.837;-0.1055;-0.5483;0.6738;-47.1191;19.3481;41.1987;-6.9818;5.8173;-35.6891;34.8000 
1384.837;-0.1055;-0.5483;0.6738;-47.1191;19.3481;41.1987;-7.2949;5.9436;-35.5133;34.8000 
1384.837;-0.1055;-0.5483;0.6738;-47.1191;19.3481;41.1987;-7.6025;6.0754;-35.3375;34.8600 
1384.837;-0.1055;-0.5483;0.6738;-47.1191;19.3481;41.1987;-7.9102;6.2073;-35.1617;34.8600 
1384.837;-0.1055;-0.5483;0.6738;-47.1191;19.3481;41.1987;-8.2178;6.3391;-34.9915;34.8600 
1384.837;-0.1055;-0.5483;0.6738;-47.1191;19.3481;41.1987;-8.5199;6.4709;-34.8267;34.8500 
1384.837;-0.1055;-0.5483;0.6738;-47.1191;19.3481;41.1987;-8.8220;6.6028;-34.6619;34.8500 
1384.857;0.1670;-0.5459;0.6636;-22.3389;-10.3760;26.3672;-9.0143;6.5259;-34.5520;34.7600 
1384.857;0.1670;-0.5459;0.6636;-22.3389;-10.3760;26.3672;-9.2010;6.4545;-34.4476;34.7600 
1384.867;0.1670;-0.5459;0.6636;-22.3389;-10.3760;26.3672;-9.3933;6.3776;-34.3488;34.7500 
1384.867;0.1670;-0.5459;0.6636;-22.3389;-10.3760;26.3672;-9.5801;6.3062;-34.2444;34.7500 
1384.867;0.1670;-0.5459;0.6636;-22.3389;-10.3760;26.3672;-9.7723;6.2347;-34.1455;34.8400 
1384.867;0.1670;-0.5459;0.6636;-22.3389;-10.3760;26.3672;-9.9591;6.1633;-34.0466;34.8400 
1384.887;0.1670;-0.5459;0.6636;-22.3389;-10.3760;26.3672;-10.1459;6.0919;-33.9478;34.8100 
1384.887;0.1670;-0.5459;0.6636;-22.3389;-10.3760;26.3672;-10.3326;6.0205;-33.8489;34.8100 
1384.887;0.5850;-0.5742;0.8062;15.1978;-43.5181;10.2539;-10.3271;5.7129;-33.7885;34.8000 
1384.887;0.5850;-0.5742;0.8062;15.1978;-43.5181;10.2539;-10.3162;5.4053;-33.7335;34.8000 
1384.907;0.5850;-0.5742;0.8062;15.1978;-43.5181;10.2539;-10.3107;5.1031;-33.6731;34.7800 
1384.907;0.5850;-0.5742;0.8062;15.1978;-43.5181;10.2539;-10.2997;4.7955;-33.6182;34.7800 
1384.907;0.5850;-0.5742;0.8062;15.1978;-43.5181;10.2539;-10.2942;4.4934;-33.5577;34.8900 
1384.907;0.5850;-0.5742;0.8062;15.1978;-43.5181;10.2539;-10.2887;4.1913;-33.5028;34.8900 
1384.907;0.5850;-0.5742;0.8062;15.1978;-43.5181;10.2539;-10.2832;3.8837;-33.4424;34.8900 
1384.917;0.5850;-0.5742;0.8062;15.1978;-43.5181;10.2539;-10.2777;3.5870;-33.3875;34.7800 
1384.917;0.8447;-0.2651;0.8770;55.1147;-64.5142;-0.9766;-10.0140;3.1311;-33.3435;34.7800 
1384.927;0.8447;-0.2651;0.8770;55.1147;-64.5142;-0.9766;-9.7559;2.6807;-33.2941;34.8200 
1384.927;0.8447;-0.2651;0.8770;55.1147;-64.5142;-0.9766;-9.4977;2.2302;-33.2501;34.8200 
1385.027;0.8447;-0.2651;0.8770;55.1147;-64.5142;-0.9766;-9.2395;1.7798;-33.2117;34.8200 
1385.027;0.8447;-0.2651;0.8770;55.1147;-64.5142;-0.9766;-8.9813;1.3293;-33.1677;34.8200 
1385.027;0.8447;-0.2651;0.8770;55.1147;-64.5142;-0.9766;-8.7286;0.8844;-33.1238;34.8000 
1385.027;0.8447;-0.2651;0.8770;55.1147;-64.5142;-0.9766;-8.4705;0.4395;-33.0798;34.8000 
1385.037;0.8447;-0.2651;0.8770;55.1147;-64.5142;-0.9766;-8.2178;0.0000;-33.0414;34.8400 
1385.037;0.9175;0.0679;0.8276;82.2144;-63.9648;-1.8311;-7.7728;-0.4614;-32.9974;34.8400 
1385.037;0.9175;0.0679;0.8276;82.2144;-63.9648;-1.8311;-7.3334;-0.9119;-32.9590;34.8400 
1385.037;0.9175;0.0679;0.8276;82.2144;-63.9648;-1.8311;-6.8939;-1.3678;-32.9205;34.8400 
1385.037;0.9175;0.0679;0.8276;82.2144;-63.9648;-1.8311;-6.4545;-1.8237;-32.8821;34.8300 
1385.037;0.9175;0.0679;0.8276;82.2144;-63.9648;-1.8311;-6.0150;-2.2742;-32.8491;34.8300 
1385.037;0.9175;0.0679;0.8276;82.2144;-63.9648;-1.8311;-5.5811;-2.7246;-32.8162;34.8100 
1385.037;0.9175;0.0679;0.8276;82.2144;-63.9648;-1.8311;-5.1471;-3.1750;-32.7887;34.8100 
1385.037;0.9175;0.0679;0.8276;82.2144;-63.9648;-1.8311;-4.7131;-3.6255;-32.7612;34.8100 
1385.037;0.8062;0.1758;0.8984;81.4819;-43.5791;10.3149;-4.2737;-3.9496;-32.6953;34.8200 
1385.037;0.8062;0.1758;0.8984;81.4819;-43.5791;10.3149;-3.8342;-4.2737;-32.6294;34.8200 
1385.037;0.8062;0.1758;0.8984;81.4819;-43.5791;10.3149;-3.3948;-4.5978;-32.5635;34.7800 
1385.037;0.8062;0.1758;0.8984;81.4819;-43.5791;10.3149;-2.9608;-4.9219;-32.4976;34.7800 
1385.037;0.8062;0.1758;0.8984;81.4819;-43.5791;10.3149;-2.5214;-5.2460;-32.4371;34.8300 
1385.037;0.8062;0.1758;0.8984;81.4819;-43.5791;10.3149;-2.0874;-5.5646;-32.3767;34.8300 
1385.037;0.8062;0.1758;0.8984;81.4819;-43.5791;10.3149;-1.6589;-5.8887;-32.3163;34.8100 
1385.037;0.8062;0.1758;0.8984;81.4819;-43.5791;10.3149;-1.2250;-6.2073;-32.2614;34.8100 
1385.037;0.6270;0.2368;0.8940;53.3447;-14.4653;31.0669;-0.9338;-6.3611;-32.1130;34.8500 
1385.047;0.6270;0.2368;0.8940;53.3447;-14.4653;31.0669;-0.6482;-6.5149;-31.9592;34.8500 
1385.047;0.6270;0.2368;0.8940;53.3447;-14.4653;31.0669;-0.3625;-6.6687;-31.8109;34.8700 
1385.067;0.6270;0.2368;0.8940;53.3447;-14.4653;31.0669;-0.0714;-6.8225;-31.6626;34.8700 
1385.067;0.6270;0.2368;0.8940;53.3447;-14.4653;31.0669;0.2032;-6.9818;-31.5143;34.8600 
1385.067;0.6270;0.2368;0.8940;53.3447;-14.4653;31.0669;0.4889;-7.1356;-31.3605;34.8600 
1385.067;0.6270;0.2368;0.8940;53.3447;-14.4653;31.0669;0.7745;-7.2894;-31.2122;34.8100 
1385.067;0.6270;0.2368;0.8940;53.3447;-14.4653;31.0669;1.0547;-7.4487;-31.0638;34.8100 
1385.087;0.4795;0.0142;0.9927;12.6953;10.7422;51.9409;1.0822;-7.4542;-30.8002;34.8100 
1385.087;0.4795;0.0142;0.9927;12.6953;10.7422;51.9409;1.1096;-7.4597;-30.5365;34.8400 
1385.097;0.4795;0.0142;0.9927;12.6953;10.7422;51.9409;1.1426;-7.4652;-30.2728;34.8400 
1385.097;0.4795;0.0142;0.9927;12.6953;10.7422;51.9409;1.1700;-7.4707;-30.0146;34.8100 
1385.107;0.4795;0.0142;0.9927;12.6953;10.7422;51.9409;1.1975;-7.4762;-29.7510;34.8100 
1385.107;0.4795;0.0142;0.9927;12.6953;10.7422;51.9409;1.2250;-7.4817;-29.4873;34.7900 
1385.107;0.4795;0.0142;0.9927;12.6953;10.7422;51.9409;1.2524;-7.4927;-29.2236;34.7900 
1385.107;0.4795;0.0142;0.9927;12.6953;10.7422;51.9409;1.2799;-7.4982;-28.9600;34.8300 
1385.117;0.3784;-0.1274;1.0483;-23.1323;25.3906;65.7959;1.0986;-7.4158;-28.6249;34.8300 
1385.117;0.3784;-0.1274;1.0483;-23.1323;25.3906;65.7959;0.9174;-7.3334;-28.2843;34.8400 
1385.137;0.3784;-0.1274;1.0483;-23.1323;25.3906;65.7959;0.7361;-7.2455;-27.9492;34.8400 
1385.137;0.3784;-0.1274;1.0483;-23.1323;25.3906;65.7959;0.5603;-7.1631;-27.6141;34.7600 
1385.137;0.3784;-0.1274;1.0483;-23.1323;25.3906;65.7959;0.3790;-7.0752;-27.2845;34.7600 
1385.137;0.3784;-0.1274;1.0483;-23.1323;25.3906;65.7959;0.2032;-6.9873;-26.9495;34.8400 
1385.226;0.3784;-0.1274;1.0483;-23.1323;25.3906;65.7959;0.0275;-6.8994;-26.6199;34.8400 
1385.226;0.3784;-0.1274;1.0483;-23.1323;25.3906;65.7959;-0.1428;-6.8115;-26.2848;34.8400 
1385.226;0.3467;-0.2256;1.0674;-41.1987;28.8696;68.5425;-0.4230;-6.7017;-25.9387;34.8100 
1385.226;0.3467;-0.2256;1.0674;-41.1987;28.8696;68.5425;-0.6976;-6.5863;-25.5927;34.8100 
1385.237;0.3467;-0.2256;1.0674;-41.1987;28.8696;68.5425;-0.9778;-6.4709;-25.2466;34.8700 
1385.237;0.3467;-0.2256;1.0674;-41.1987;28.8696;68.5425;-1.2524;-6.3556;-24.9060;34.8700 
1385.237;0.3467;-0.2256;1.0674;-41.1987;28.8696;68.5425;-1.5216;-6.2347;-24.5599;34.8100 
1385.237;0.3467;-0.2256;1.0674;-41.1987;28.8696;68.5425;-1.7963;-6.1139;-24.2194;34.8100 
1385.237;0.3467;-0.2256;1.0674;-41.1987;28.8696;68.5425;-2.0654;-5.9930;-23.8843;34.8700 
1385.237;0.3467;-0.2256;1.0674;-41.1987;28.8696;68.5425;-2.3346;-5.8722;-23.5437;34.8700 
1385.237;0.3584;-0.2813;1.0586;-41.0156;24.0479;61.2793;-2.6093;-5.7788;-23.2416;34.7900 
1385.237;0.3584;-0.2813;1.0586;-41.0156;24.0479;61.2793;-2.8784;-5.6799;-22.9449;34.7900 
1385.237;0.3584;-0.2813;1.0586;-41.0156;24.0479;61.2793;-3.1476;-5.5811;-22.6428;34.7800 
1385.237;0.3584;-0.2813;1.0586;-41.0156;24.0479;61.2793;-3.4167;-5.4822;-22.3462;34.7800 
1385.237;0.3584;-0.2813;1.0586;-41.0156;24.0479;61.2793;-3.6804;-5.3833;-22.0496;34.7800 
1385.237;0.3584;-0.2813;1.0586;-41.0156;24.0479;61.2793;-3.9441;-5.2789;-21.7584;34.7800 
1385.237;0.3584;-0.2813;1.0586;-41.0156;24.0479;61.2793;-4.2078;-5.1746;-21.4618;34.8300 
1385.256;0.3584;-0.2813;1.0586;-41.0156;24.0479;61.2793;-4.4714;-5.0702;-21.1707;34.8300 
1385.256;0.3862;-0.2983;1.0376;-30.7007;15.6860;48.5840;-4.6802;-5.0208;-20.9399;34.8300 
1385.256;0.3862;-0.2983;1.0376;-30.7007;15.6860;48.5840;-4.8889;-4.9658;-20.7092;34.8200 
1385.256;0.3862;-0.2983;1.0376;-30.7007;15.6860;48.5840;-5.0922;-4.9109;-20.4785;34.8200 
1385.267;0.3862;-0.2983;1.0376;-30.7007;15.6860;48.5840;-5.3009;-4.8505;-20.2533;34.7700 
1385.267;0.3862;-0.2983;1.0376;-30.7007;15.6860;48.5840;-5.5042;-4.7955;-20.0226;34.7700 
1385.277;0.3862;-0.2983;1.0376;-30.7007;15.6860;48.5840;-5.7074;-4.7406;-19.7974;34.8000 
1385.277;0.3862;-0.2983;1.0376;-30.7007;15.6860;48.5840;-5.9106;-4.6802;-19.5721;34.8000 
1385.287;0.3862;-0.2983;1.0376;-30.7007;15.6860;48.5840;-6.1139;-4.6198;-19.3414;34.8600 
1385.287;0.4067;-0.2896;1.0161;-17.6392;7.5073;34.5459;-6.2457;-4.6143;-19.1821;34.8600 
1385.297;0.4067;-0.2896;1.0161;-17.6392;7.5073;34.5459;-6.3721;-4.6088;-19.0228;34.8100 
1385.297;0.4067;-0.2896;1.0161;-17.6392;7.5073;34.5459;-6.5039;-4.5978;-18.8635;34.8100 
1385.317;0.4067;-0.2896;1.0161;-17.6392;7.5073;34.5459;-6.6357;-4.5923;-18.7097;34.8400 
1385.317;0.4067;-0.2896;1.0161;-17.6392;7.5073;34.5459;-6.7621;-4.5813;-18.5504;34.8400 
1385.346;0.4067;-0.2896;1.0161;-17.6392;7.5073;34.5459;-6.8939;-4.5703;-18.3911;34.8100 
1385.346;0.4067;-0.2896;1.0161;-17.6392;7.5073;34.5459;-7.0203;-4.5648;-18.2373;34.8100 
1385.426;0.4067;-0.2896;1.0161;-17.6392;7.5073;34.5459;-7.1466;-4.5538;-18.0780;34.8100 
1385.426;0.3848;-0.2490;0.9995;-6.2866;1.4038;21.6675;-7.2070;-4.5813;-17.9846;34.8100 
1385.446;0.3848;-0.2490;0.9995;-6.2866;1.4038;21.6675;-7.2729;-4.6088;-17.8912;34.8100 
1385.446;0.3848;-0.2490;0.9995;-6.2866;1.4038;21.6675;-7.3334;-4.6307;-17.7924;34.8100 
1385.446;0.3848;-0.2490;0.9995;-6.2866;1.4038;21.6675;-7.3938;-4.6582;-17.6990;34.8100 
1385.446;0.3848;-0.2490;0.9995;-6.2866;1.4038;21.6675;-7.4542;-4.6857;-17.6056;34.8100 
1385.446;0.3848;-0.2490;0.9995;-6.2866;1.4038;21.6675;-7.5146;-4.7076;-17.5122;34.8100 
1385.446;0.3848;-0.2490;0.9995;-6.2866;1.4038;21.6675;-7.5751;-4.7351;-17.4188;34.8100 
1385.446;0.3848;-0.2490;0.9995;-6.2866;1.4038;21.6675;-7.6355;-4.7626;-17.3254;34.8100 
1385.446;0.3350;-0.1958;0.9897;1.2817;-2.0752;11.1694;-7.6465;-4.8065;-17.2815;34.8600 
1385.476;0.3350;-0.1958;0.9897;1.2817;-2.0752;11.1694;-7.6575;-4.8450;-17.2430;34.8600 
1385.476;0.3350;-0.1958;0.9897;1.2817;-2.0752;11.1694;-7.6685;-4.8889;-17.1991;34.7800 
1385.496;0.3350;-0.1958;0.9897;1.2817;-2.0752;11.1694;-7.6794;-4.9329;-17.1606;34.7800 
1385.496;0.3350;-0.1958;0.9897;1.2817;-2.0752;11.1694;-7.6849;-4.9768;-17.1222;34.8200 
1385.506;0.3350;-0.1958;0.9897;1.2817;-2.0752;11.1694;-7.6959;-5.0153;-17.0782;34.8200 
1385.506;0.3350;-0.1958;0.9897;1.2817;-2.0752;11.1694;-7.7069;-5.0592;-17.0398;34.8000 
1385.636;0.3350;-0.1958;0.9897;1.2817;-2.0752;11.1694;-7.7179;-5.1031;-17.0013;34.8000 
1385.636;0.2529;-0.1279;0.9858;5.0659;-3.4180;3.6621;-7.6959;-5.1416;-16.9958;34.8100 
1385.646;0.2529;-0.1279;0.9858;5.0659;-3.4180;3.6621;-7.6740;-5.1855;-16.9958;34.8100 
1385.646;0.2529;-0.1279;0.9858;5.0659;-3.4180;3.6621;-7.6520;-5.2295;-16.9904;34.8100 
1385.646;0.2529;-0.1279;0.9858;5.0659;-3.4180;3.6621;-7.6300;-5.2679;-16.9904;34.8100 
1385.646;0.2529;-0.1279;0.9858;5.0659;-3.4180;3.6621;-7.6080;-5.3119;-16.9904;34.8100 
1385.646;0.2529;-0.1279;0.9858;5.0659;-3.4180;3.6621;-7.5806;-5.3503;-16.9849;34.8700 
1385.696;0.2529;-0.1279;0.9858;5.0659;-3.4180;3.6621;-7.5586;-5.3943;-16.9849;34.8700 
1385.696;0.1631;-0.0615;0.9858;5.7983;-3.2349;-0.9155;-7.5201;-5.4218;-17.0068;34.9000 
1385.716;0.1631;-0.0615;0.9858;5.7983;-3.2349;-0.9155;-7.4817;-5.4492;-17.0288;34.9000 
1385.716;0.1631;-0.0615;0.9858;5.7983;-3.2349;-0.9155;-7.4377;-5.4822;-17.0508;34.7900 
1385.736;0.1631;-0.0615;0.9858;5.7983;-3.2349;-0.9155;-7.3993;-5.5096;-17.0728;34.7900 
1385.736;0.1631;-0.0615;0.9858;5.7983;-3.2349;-0.9155;-7.3608;-5.5371;-17.0947;34.8300 
1385.846;0.1631;-0.0615;0.9858;5.7983;-3.2349;-0.9155;-7.3224;-5.5646;-17.1167;34.8300 
1385.846;0.1631;-0.0615;0.9858;5.7983;-3.2349;-0.9155;-7.2784;-5.5975;-17.1387;34.8000 
1385.866;0.1631;-0.0615;0.9858;5.7983;-3.2349;-0.9155;-7.2400;-5.6250;-17.1606;34.8000 
1385.866;0.0923;-0.0122;0.9878;4.7607;-2.3193;-3.1128;-7.1960;-5.6360;-17.1936;34.8900 
1385.866;0.0923;-0.0122;0.9878;4.7607;-2.3193;-3.1128;-7.1521;-5.6525;-17.2321;34.8900 
1385.866;0.0923;-0.0122;0.9878;4.7607;-2.3193;-3.1128;-7.1082;-5.6635;-17.2650;34.8900 
1385.876;0.0923;-0.0122;0.9878;4.7607;-2.3193;-3.1128;-7.0642;-5.6799;-17.2980;34.8200 
1385.876;0.0923;-0.0122;0.9878;4.7607;-2.3193;-3.1128;-7.0203;-5.6909;-17.3309;34.8200 
1385.936;0.0923;-0.0122;0.9878;4.7607;-2.3193;-3.1128;-6.9763;-5.7074;-17.3639;34.8000 
1385.936;0.0923;-0.0122;0.9878;4.7607;-2.3193;-3.1128;-6.9324;-5.7184;-17.4023;34.8000 
1385.946;0.0923;-0.0122;0.9878;4.7607;-2.3193;-3.1128;-6.8884;-5.7294;-17.4353;34.8900 
1385.946;0.0488;0.0161;0.9902;2.9907;-1.2207;-3.4790;-6.8445;-5.7294;-17.4738;34.8900 
1386.046;0.0488;0.0161;0.9902;2.9907;-1.2207;-3.4790;-6.8060;-5.7349;-17.5067;34.8000 
1386.046;0.0488;0.0161;0.9902;2.9907;-1.2207;-3.4790;-6.7676;-5.7349;-17.5452;34.8000 
1386.066;0.0488;0.0161;0.9902;2.9907;-1.2207;-3.4790;-6.7236;-5.7349;-17.5781;34.8400 
1386.066;0.0488;0.0161;0.9902;2.9907;-1.2207;-3.4790;-6.6852;-5.7349;-17.6166;34.8400 
1386.066;0.0488;0.0161;0.9902;2.9907;-1.2207;-3.4790;-6.6467;-5.7349;-17.6550;34.7600 
1386.066;0.0488;0.0161;0.9902;2.9907;-1.2207;-3.4790;-6.6028;-5.7349;-17.6880;34.7600 
1386.106;0.0488;0.0161;0.9902;2.9907;-1.2207;-3.4790;-6.5643;-5.7349;-17.7209;34.8400 
1386.106;0.0308;0.0259;0.9927;1.3428;-0.3662;-2.8076;-6.5314;-5.7294;-17.7539;34.8400 
1386.246;0.0308;0.0259;0.9927;1.3428;-0.3662;-2.8076;-6.4984;-5.7239;-17.7869;34.8400 
1386.266;0.0308;0.0259;0.9927;1.3428;-0.3662;-2.8076;-6.4655;-5.7129;-17.8198;34.8400 
1386.266;0.0308;0.0259;0.9927;1.3428;-0.3662;-2.8076;-6.4325;-5.7074;-17.8528;34.8400 
1386.266;0.0308;0.0259;0.9927;1.3428;-0.3662;-2.8076;-6.3995;-5.7019;-17.8802;34.7600 
1386.266;0.0308;0.0259;0.9927;1.3428;-0.3662;-2.8076;-6.3721;-5.6909;-17.9132;34.7600 
1386.296;0.0308;0.0259;0.9927;1.3428;-0.3662;-2.8076;-6.3391;-5.6854;-17.9462;34.8500 
1386.296;0.0308;0.0259;0.9927;1.3428;-0.3662;-2.8076;-6.3062;-5.6799;-17.9791;34.8500 
1386.296;0.0313;0.0234;0.9946;0.1221;0.1221;-1.7700;-6.2787;-5.6689;-18.0066;34.8100 
1386.296;0.0313;0.0234;0.9946;0.1221;0.1221;-1.7700;-6.2567;-5.6580;-18.0341;34.8100 
1386.316;0.0313;0.0234;0.9946;0.1221;0.1221;-1.7700;-6.2292;-5.6470;-18.0560;34.8800 
1386.316;0.0313;0.0234;0.9946;0.1221;0.1221;-1.7700;-6.2073;-5.6360;-18.0835;34.8800 
1386.456;0.0313;0.0234;0.9946;0.1221;0.1221;-1.7700;-6.1798;-5.6305;-18.1110;34.8100 
1386.456;0.0313;0.0234;0.9946;0.1221;0.1221;-1.7700;-6.1578;-5.6195;-18.1384;34.8100 
1386.456;0.0313;0.0234;0.9946;0.1221;0.1221;-1.7700;-6.1304;-5.6085;-18.1659;34.8100 
1386.456;0.0313;0.0234;0.9946;0.1221;0.1221;-1.7700;-6.1084;-5.5975;-18.1934;34.8100 
1386.466;0.0405;0.0151;0.9951;-0.4883;0.4272;-0.7324;-6.0864;-5.5865;-18.2098;34.8700 
1386.466;0.0405;0.0151;0.9951;-0.4883;0.4272;-0.7324;-6.0699;-5.5756;-18.2318;34.8700 
1386.466;0.0405;0.0151;0.9951;-0.4883;0.4272;-0.7324;-6.0480;-5.5646;-18.2538;34.7600 
1386.466;0.0405;0.0151;0.9951;-0.4883;0.4272;-0.7324;-6.0315;-5.5591;-18.2758;34.7600 
1386.526;0.0405;0.0151;0.9951;-0.4883;0.4272;-0.7324;-6.0095;-5.5481;-18.2977;34.7600 
1386.526;0.0405;0.0151;0.9951;-0.4883;0.4272;-0.7324;-5.9930;-5.5371;-18.3142;34.7700 
1386.526;0.0405;0.0151;0.9951;-0.4883;0.4272;-0.7324;-5.9711;-5.5261;-18.3362;34.7700 
1386.526;0.0405;0.0151;0.9951;-0.4883;0.4272;-0.7324;-5.9546;-5.5151;-18.3582;34.8000 
1386.576;0.0532;0.0059;0.9956;-0.7324;0.4272;-0.0610;-5.9381;-5.5096;-18.3746;34.8000 
1386.576;0.0532;0.0059;0.9956;-0.7324;0.4272;-0.0610;-5.9216;-5.4987;-18.3966;34.8200 
1386.576;0.0532;0.0059;0.9956;-0.7324;0.4272;-0.0610;-5.9052;-5.4877;-18.4131;34.8200 
1386.586;0.0532;0.0059;0.9956;-0.7324;0.4272;-0.0610;-5.8887;-5.4822;-18.4296;34.7600 
1386.586;0.0532;0.0059;0.9956;-0.7324;0.4272;-0.0610;-5.8777;-5.4712;-18.4515;34.7600 
1386.586;0.0532;0.0059;0.9956;-0.7324;0.4272;-0.0610;-5.8612;-5.4657;-18.4680;34.8400 
1386.586;0.0532;0.0059;0.9956;-0.7324;0.4272;-0.0610;-5.8447;-5.4547;-18.4845;34.8400 
1386.716;0.0532;0.0059;0.9956;-0.7324;0.4272;-0.0610;-5.8282;-5.4492;-18.5010;34.8000 
1386.716;0.0635;-0.0015;0.9956;-0.6714;0.3052;0.3052;-5.8173;-5.4437;-18.5175;34.8000 
1386.716;0.0635;-0.0015;0.9956;-0.6714;0.3052;0.3052;-5.8008;-5.4327;-18.5284;34.8200 
1386.716;0.0635;-0.0015;0.9956;-0.6714;0.3052;0.3052;-5.7898;-5.4272;-18.5449;34.8200 
1386.736;0.0635;-0.0015;0.9956;-0.6714;0.3052;0.3052;-5.7733;-5.4218;-18.5559;34.8400 
1386.736;0.0635;-0.0015;0.9956;-0.6714;0.3052;0.3052;-5.7568;-5.4163;-18.5724;34.8400 
1386.736;0.0635;-0.0015;0.9956;-0.6714;0.3052;0.3052;-5.7458;-5.4108;-18.5834;34.8400 
1386.736;0.0635;-0.0015;0.9956;-0.6714;0.3052;0.3052;-5.7294;-5.4053;-18.5999;34.8400 
1386.736;0.0635;-0.0015;0.9956;-0.6714;0.3052;0.3052;-5.7184;-5.3998;-18.6108;34.8400 
1386.736;0.0708;-0.0059;0.9951;-0.4272;0.1831;0.4272;-5.7019;-5.3943;-18.6273;34.7400 
1386.736;0.0708;-0.0059;0.9951;-0.4272;0.1831;0.4272;-5.6909;-5.3888;-18.6383;34.7400 
1386.736;0.0708;-0.0059;0.9951;-0.4272;0.1831;0.4272;-5.6744;-5.3833;-18.6493;34.8100 
1386.736;0.0708;-0.0059;0.9951;-0.4272;0.1831;0.4272;-5.6635;-5.3778;-18.6658;34.8100 
1386.736;0.0708;-0.0059;0.9951;-0.4272;0.1831;0.4272;-5.6470;-5.3778;-18.6768;34.8200 
1386.736;0.0708;-0.0059;0.9951;-0.4272;0.1831;0.4272;-5.6360;-5.3723;-18.6877;34.8200 
1386.736;0.0708;-0.0059;0.9951;-0.4272;0.1831;0.4272;-5.6195;-5.3668;-18.6987;34.8100 
1386.736;0.0708;-0.0059;0.9951;-0.4272;0.1831;0.4272;-5.6085;-5.3613;-18.7152;34.8100 
1386.736;0.0742;-0.0083;0.9946;-0.1831;0.0610;0.3662;-5.5920;-5.3613;-18.7262;34.8100 
1386.736;0.0742;-0.0083;0.9946;-0.1831;0.0610;0.3662;-5.5811;-5.3558;-18.7372;34.8100 
1386.736;0.0742;-0.0083;0.9946;-0.1831;0.0610;0.3662;-5.5646;-5.3558;-18.7482;34.8700 
1386.876;0.0742;-0.0083;0.9946;-0.1831;0.0610;0.3662;-5.5481;-5.3503;-18.7646;34.8700 
1386.876;0.0742;-0.0083;0.9946;-0.1831;0.0610;0.3662;-5.5371;-5.3448;-18.7756;34.8700 
1386.876;0.0742;-0.0083;0.9946;-0.1831;0.0610;0.3662;-5.5206;-5.3448;-18.7866;34.8800 
1386.896;0.0742;-0.0083;0.9946;-0.1831;0.0610;0.3662;-5.5096;-5.3394;-18.7976;34.8800 
1386.896;0.0742;-0.0083;0.9946;-0.1831;0.0610;0.3662;-5.4932;-5.3394;-18.8141;34.7800 
1386.896;0.0747;-0.0088;0.9946;0.0000;0.0000;0.2441;-5.4767;-5.3339;-18.8251;34.7800 
1386.896;0.0747;-0.0088;0.9946;0.0000;0.0000;0.2441;-5.4602;-5.3339;-18.8361;34.8600 
1386.896;0.0747;-0.0088;0.9946;0.0000;0.0000;0.2441;-5.4492;-5.3284;-18.8470;34.8600 
1386.896;0.0747;-0.0088;0.9946;0.0000;0.0000;0.2441;-5.4327;-5.3284;-18.8580;34.9000 
1386.896;0.0747;-0.0088;0.9946;0.0000;0.0000;0.2441;-5.4163;-5.3229;-18.8745;34.9000 
1386.896;0.0747;-0.0088;0.9946;0.0000;0.0000;0.2441;-5.4053;-5.3229;-18.8855;34.8700 
1386.896;0.0747;-0.0088;0.9946;0.0000;0.0000;0.2441;-5.3888;-5.3174;-18.8965;34.8700 
1386.896;0.0747;-0.0088;0.9946;0.0000;0.0000;0.2441;-5.3723;-5.3174;-18.9075;34.8200 
1386.896;0.0742;-0.0078;0.9946;0.0610;0.0000;0.0610;-5.3613;-5.3119;-18.9185;34.8200 
1386.896;0.0742;-0.0078;0.9946;0.0610;0.0000;0.0610;-5.3448;-5.3119;-18.9294;34.7200 
1386.896;0.0742;-0.0078;0.9946;0.0610;0.0000;0.0610;-5.3284;-5.3064;-18.9459;34.7200 
1386.896;0.0742;-0.0078;0.9946;0.0610;0.0000;0.0610;-5.3119;-5.3064;-18.9569;34.8200 
1386.896;0.0742;-0.0078;0.9946;0.0610;0.0000;0.0610;-5.3009;-5.3064;-18.9679;34.8200 
1386.896;0.0742;-0.0078;0.9946;0.0610;0.0000;0.0610;-5.2844;-5.3009;-18.9789;34.8200 
1387.076;0.0742;-0.0078;0.9946;0.0610;0.0000;0.0610;-5.2679;-5.3009;-18.9954;34.8500 
1387.076;0.0742;-0.0078;0.9946;0.0610;0.0000;0.0610;-5.2515;-5.2954;-19.0063;34.8500 
1387.076;0.0728;-0.0068;0.9951;0.1221;0.0000;0.0000;-5.2405;-5.2954;-19.0173;34.7800 
1387.076;0.0728;-0.0068;0.9951;0.1221;0.0000;0.0000;-5.2240;-5.2899;-19.0338;34.7800 
1387.096;0.0728;-0.0068;0.9951;0.1221;0.0000;0.0000;-5.2075;-5.2899;-19.0448;34.7800 
1387.096;0.0728;-0.0068;0.9951;0.1221;0.0000;0.0000;-5.1910;-5.2844;-19.0558;34.7800 
1387.096;0.0728;-0.0068;0.9951;0.1221;0.0000;0.0000;-5.1801;-5.2844;-19.0668;34.8600 
1387.125;0.0728;-0.0068;0.9951;0.1221;0.0000;0.0000;-5.1636;-5.2789;-19.0778;34.8600 
1387.125;0.0728;-0.0068;0.9951;0.1221;0.0000;0.0000;-5.1471;-5.2789;-19.0942;34.8100 
1387.125;0.0728;-0.0068;0.9951;0.1221;0.0000;0.0000;-5.1306;-5.2734;-19.1052;34.8100 
1387.125;0.0718;-0.0054;0.9951;0.1221;0.0000;-0.0610;-5.1196;-5.2679;-19.1162;34.9000 
1387.165;0.0718;-0.0054;0.9951;0.1221;0.0000;-0.0610;-5.1031;-5.2679;-19.1327;34.9000 
1387.165;0.0718;-0.0054;0.9951;0.1221;0.0000;-0.0610;-5.0867;-5.2625;-19.1437;34.8000 
1387.165;0.0718;-0.0054;0.9951;0.1221;0.0000;-0.0610;-5.0702;-5.2625;-19.1602;34.8000 
1387.165;0.0718;-0.0054;0.9951;0.1221;0.0000;-0.0610;-5.0592;-5.2570;-19.1766;34.8800 
1387.195;0.0718;-0.0054;0.9951;0.1221;0.0000;-0.0610;-5.0427;-5.2570;-19.1876;34.8800 
1387.195;0.0718;-0.0054;0.9951;0.1221;0.0000;-0.0610;-5.0262;-5.2515;-19.2041;34.8800 
1387.195;0.0718;-0.0054;0.9951;0.1221;0.0000;-0.0610;-5.0098;-5.2515;-19.2206;34.7800 
1387.195;0.0708;-0.0044;0.9951;0.1221;0.0000;-0.0610;-4.9988;-5.2460;-19.2316;34.7800 
1387.275;0.0708;-0.0044;0.9951;0.1221;0.0000;-0.0610;-4.9823;-5.2460;-19.2480;34.7800 
1387.275;0.0708;-0.0044;0.9951;0.1221;0.0000;-0.0610;-4.9658;-5.2405;-19.2645;34.7800 
1387.275;0.0708;-0.0044;0.9951;0.1221;0.0000;-0.0610;-4.9493;-5.2405;-19.2755;34.8800 
1387.275;0.0708;-0.0044;0.9951;0.1221;0.0000;-0.0610;-4.9384;-5.2350;-19.2920;34.8800 
1387.295;0.0708;-0.0044;0.9951;0.1221;0.0000;-0.0610;-4.9219;-5.2350;-19.3030;34.8300 
1387.295;0.0708;-0.0044;0.9951;0.1221;0.0000;-0.0610;-4.9054;-5.2295;-19.3195;34.8300 
1387.295;0.0708;-0.0044;0.9951;0.1221;0.0000;-0.0610;-4.8944;-5.2295;-19.3304;34.8000 
1387.295;0.0698;-0.0039;0.9951;0.0610;0.0000;-0.0610;-4.8779;-5.2240;-19.3469;34.8000 
1387.405;0.0698;-0.0039;0.9951;0.0610;0.0000;-0.0610;-4.8615;-5.2240;-19.3579;34.8800 
1387.405;0.0698;-0.0039;0.9951;0.0610;0.0000;-0.0610;-4.8505;-5.2185;-19.3689;34.8800 
1387.405;0.0698;-0.0039;0.9951;0.0610;0.0000;-0.0610;-4.8340;-5.2130;-19.3799;34.8100 
1387.405;0.0698;-0.0039;0.9951;0.0610;0.0000;-0.0610;-4.8175;-5.2130;-19.3909;34.8100 
1387.425;0.0698;-0.0039;0.9951;0.0610;0.0000;-0.0610;-4.8065;-5.2075;-19.4073;34.7700 
1387.425;0.0698;-0.0039;0.9951;0.0610;0.0000;-0.0610;-4.7900;-5.2075;-19.4183;34.7700 
1387.425;0.0698;-0.0039;0.9951;0.0610;0.0000;-0.0610;-4.7791;-5.2020;-19.4293;34.7700 
1387.465;0.0693;-0.0034;0.9946;0.0610;0.0000;-0.0610;-4.7626;-5.2020;-19.4403;34.8000 
1387.465;0.0693;-0.0034;0.9946;0.0610;0.0000;-0.0610;-4.7516;-5.1965;-19.4568;34.8000 
1387.465;0.0693;-0.0034;0.9946;0.0610;0.0000;-0.0610;-4.7351;-5.1910;-19.4678;34.8000 
1387.465;0.0693;-0.0034;0.9946;0.0610;0.0000;-0.0610;-4.7186;-5.1910;-19.4788;34.8000 
1387.585;0.0693;-0.0034;0.9946;0.0610;0.0000;-0.0610;-4.7076;-5.1855;-19.4897;34.8100 
1387.585;0.0693;-0.0034;0.9946;0.0610;0.0000;-0.0610;-4.6912;-5.1855;-19.5007;34.8100 
1387.585;0.0693;-0.0034;0.9946;0.0610;0.0000;-0.0610;-4.6802;-5.1801;-19.5172;34.8100 
1387.585;0.0693;-0.0034;0.9946;0.0610;0.0000;-0.0610;-4.6637;-5.1801;-19.5282;34.8100 
1387.595;0.0693;-0.0034;0.9941;0.0000;0.0000;-0.0610;-4.6527;-5.1746;-19.5392;34.8700 
1387.595;0.0693;-0.0034;0.9941;0.0000;0.0000;-0.0610;-4.6362;-5.1746;-19.5557;34.8700 
1387.595;0.0693;-0.0034;0.9941;0.0000;0.0000;-0.0610;-4.6252;-5.1691;-19.5667;34.7600 
1387.595;0.0693;-0.0034;0.9941;0.0000;0.0000;-0.0610;-4.6088;-5.1636;-19.5831;34.7600 
1387.595;0.0693;-0.0034;0.9941;0.0000;0.0000;-0.0610;-4.5978;-5.1636;-19.5996;34.8400 
1387.595;0.0693;-0.0034;0.9941;0.0000;0.0000;-0.0610;-4.5813;-5.1581;-19.6161;34.8400 
1387.595;0.0693;-0.0034;0.9941;0.0000;0.0000;-0.0610;-4.5703;-5.1581;-19.6271;34.8400 
1387.595;0.0693;-0.0034;0.9941;0.0000;0.0000;-0.0610;-4.5593;-5.1526;-19.6436;34.8400 
1387.595;0.0693;-0.0039;0.9941;0.0000;0.0000;0.0000;-4.5428;-5.1526;-19.6600;34.8400 
1387.595;0.0693;-0.0039;0.9941;0.0000;0.0000;0.0000;-4.5319;-5.1471;-19.6710;34.8800 
1387.595;0.0693;-0.0039;0.9941;0.0000;0.0000;0.0000;-4.5154;-5.1471;-19.6875;34.8800 
1387.595;0.0693;-0.0039;0.9941;0.0000;0.0000;0.0000;-4.5044;-5.1416;-19.6985;34.8300 
1387.595;0.0693;-0.0039;0.9941;0.0000;0.0000;0.0000;-4.4934;-5.1416;-19.7095;34.8300 
1387.595;0.0693;-0.0039;0.9941;0.0000;0.0000;0.0000;-4.4769;-5.1361;-19.7205;34.8000 
1387.595;0.0693;-0.0039;0.9941;0.0000;0.0000;0.0000;-4.4659;-5.1306;-19.7369;34.8000 
1387.615;0.0693;-0.0039;0.9941;0.0000;0.0000;0.0000;-4.4550;-5.1306;-19.7479;34.8000 
1387.615;0.0693;-0.0044;0.9941;0.0000;0.0000;0.0000;-4.4385;-5.1251;-19.7589;34.8000 
1387.615;0.0693;-0.0044;0.9941;0.0000;0.0000;0.0000;-4.4275;-5.1251;-19.7699;34.8200 
1387.615;0.0693;-0.0044;0.9941;0.0000;0.0000;0.0000;-4.4165;-5.1196;-19.7809;34.8200 
1387.625;0.0693;-0.0044;0.9941;0.0000;0.0000;0.0000;-4.4000;-5.1196;-19.7974;34.7800 
1387.625;0.0693;-0.0044;0.9941;0.0000;0.0000;0.0000;-4.3890;-5.1141;-19.8083;34.7800 
1387.625;0.0693;-0.0044;0.9941;0.0000;0.0000;0.0000;-4.3781;-5.1141;-19.8248;34.8200 
1387.625;0.0693;-0.0044;0.9941;0.0000;0.0000;0.0000;-4.3671;-5.1086;-19.8358;34.8200 
1387.635;0.0693;-0.0044;0.9941;0.0000;0.0000;0.0000;-4.3506;-5.1086;-19.8523;34.8200 
1387.635;0.0698;-0.0044;0.9946;0.0000;0.0000;0.0000;-4.3396;-5.1031;-19.8633;34.8300 
1387.635;0.0698;-0.0044;0.9946;0.0000;0.0000;0.0000;-4.3286;-5.1031;-19.8743;34.8300 
1387.645;0.0698;-0.0044;0.9946;0.0000;0.0000;0.0000;-4.3121;-5.0977;-19.8907;34.8600 
1387.745;0.0698;-0.0044;0.9946;0.0000;0.0000;0.0000;-4.3011;-5.0977;-19.9017;34.8600 
1387.745;0.0698;-0.0044;0.9946;0.0000;0.0000;0.0000;-4.2902;-5.0922;-19.9182;34.8700 
1387.745;0.0698;-0.0044;0.9946;0.0000;0.0000;0.0000;-4.2792;-5.0922;-19.9292;34.8700 
1387.745;0.0698;-0.0044;0.9946;0.0000;0.0000;0.0000;-4.2682;-5.0867;-19.9457;34.8300 
1387.755;0.0698;-0.0044;0.9946;0.0000;0.0000;0.0000;-4.2517;-5.0867;-19.9567;34.8300 
1387.755;0.0698;-0.0044;0.9946;0.0000;0.0000;0.0000;-4.2407;-5.0812;-19.9731;34.7300 
1387.755;0.0698;-0.0044;0.9946;0.0000;0.0000;0.0000;-4.2297;-5.0812;-19.9841;34.7300 
1387.755;0.0698;-0.0044;0.9946;0.0000;0.0000;0.0000;-4.2188;-5.0757;-19.9951;34.8900 
1387.755;0.0698;-0.0044;0.9946;0.0000;0.0000;0.0000;-4.2078;-5.0757;-20.0006;34.8900 
1387.755;0.0698;-0.0044;0.9946;0.0000;0.0000;0.0000;-4.1913;-5.0702;-20.0116;34.8700 
1387.755;0.0698;-0.0044;0.9946;0.0000;0.0000;0.0000;-4.1803;-5.0702;-20.0226;34.8700 
1387.755;0.0698;-0.0044;0.9946;0.0000;0.0000;0.0000;-4.1693;-5.0647;-20.0336;34.8100 
1387.755;0.0698;-0.0044;0.9946;0.0000;0.0000;0.0000;-4.1583;-5.0647;-20.0500;34.8100 
1387.755;0.0698;-0.0044;0.9946;0.0000;0.0000;0.0000;-4.1473;-5.0592;-20.0610;34.8100 
1387.755;0.0698;-0.0044;0.9946;0.0000;0.0000;0.0000;-4.1364;-5.0592;-20.0720;34.8400 
1387.755;0.0698;-0.0044;0.9946;0.0000;0.0000;0.0000;-4.1199;-5.0537;-20.0830;34.8400 
1387.755;0.0698;-0.0044;0.9946;0.0000;0.0000;0.0000;-4.1089;-5.0537;-20.0940;34.9300 
1387.755;0.0698;-0.0044;0.9946;0.0000;0.0000;0.0000;-4.0979;-5.0482;-20.1105;34.9300 
1387.755;0.0698;-0.0044;0.9946;0.0000;0.0000;0.0000;-4.0869;-5.0482;-20.1215;34.8600 
1387.765;0.0698;-0.0044;0.9946;0.0000;0.0000;0.0000;-4.0759;-5.0427;-20.1324;34.8600 
1387.765;0.0698;-0.0044;0.9946;0.0000;0.0000;0.0000;-4.0649;-5.0427;-20.1489;34.8300 
1387.765;0.0703;-0.0044;0.9946;0.0000;0.0000;0.0000;-4.0540;-5.0372;-20.1599;34.8300 
1387.765;0.0703;-0.0044;0.9946;0.0000;0.0000;0.0000;-4.0430;-5.0372;-20.1709;34.8400 
1387.785;0.0703;-0.0044;0.9946;0.0000;0.0000;0.0000;-4.0265;-5.0317;-20.1819;34.8400 
1387.785;0.0703;-0.0044;0.9946;0.0000;0.0000;0.0000;-4.0155;-5.0317;-20.1929;34.7700 
1387.785;0.0703;-0.0044;0.9946;0.0000;0.0000;0.0000;-4.0045;-5.0262;-20.2094;34.7700 
1387.785;0.0703;-0.0044;0.9946;0.0000;0.0000;0.0000;-3.9935;-5.0262;-20.2203;34.7900 
1387.885;0.0703;-0.0044;0.9946;0.0000;0.0000;0.0000;-3.9825;-5.0208;-20.2313;34.7900 
1387.885;0.0703;-0.0044;0.9946;0.0000;0.0000;0.0000;-3.9716;-5.0208;-20.2423;34.8400 
1387.885;0.0703;-0.0044;0.9946;0.0000;0.0000;0.0000;-3.9606;-5.0153;-20.2533;34.8400 
1387.885;0.0703;-0.0044;0.9946;0.0000;0.0000;0.0000;-3.9496;-5.0153;-20.2643;34.8400 
1387.905;0.0703;-0.0044;0.9946;0.0000;0.0000;0.0000;-3.9386;-5.0153;-20.2753;34.8500 
1387.905;0.0703;-0.0044;0.9946;0.0000;0.0000;0.0000;-3.9276;-5.0098;-20.2917;34.8500 
1387.905;0.0703;-0.0044;0.9946;0.0000;0.0000;0.0000;-3.9166;-5.0098;-20.3027;34.8600 
1387.905;0.0703;-0.0044;0.9946;0.0000;0.0000;0.0000;-3.9056;-5.0043;-20.3137;34.8600 
1387.905;0.0703;-0.0044;0.9946;0.0000;0.0000;0.0000;-3.8947;-5.0043;-20.3247;34.8500 
1387.905 
1387.905;0.0703;-0.0044;0.9941;0.0000;0.0000;0.0000;-3.8727;-4.9988;-20.3467;34.8100 
1387.905;0.0703;-0.0044;0.9941;0.0000;0.0000;0.0000;-3.8617;-4.9933;-20.3522;34.8100 
1387.905;0.0703;-0.0044;0.9941;0.0000;0.0000;0.0000;-3.8507;-4.9933;-20.3632;34.8200 
1387.905 
1387.905;0.0703;-0.0044;0.9941;0.0000;0.0000;0.0000;-2.7081;-4.7131;-21.4288;34.8200 
1387.905;0.0698;-0.0044;0.9946;0.0000;0.0000;0.0000;-2.6971;-4.7076;-21.4343;34.7800 
1387.905;0.0698;-0.0044;0.9946;0.0000;0.0000;0.0000;-2.6917;-4.7076;-21.4453;34.8100 
1387.905;0.0698;-0.0044;0.9946;0.0000;0.0000;0.0000;-2.6807;-4.7076;-21.4508;34.8100 
1387.905;0.0698;-0.0044;0.9946;0.0000;0.0000;0.0000;-2.6752;-4.7021;-21.4618;34.8000 
1387.905;0.0698;-0.0044;0.9946;0.0000;0.0000;0.0000;-2.6697;-4.7021;-21.4673;34.8000 
1387.905;0.0698;-0.0044;0.9946;0.0000;0.0000;0.0000;-2.6587;-4.7021;-21.4728;34.7700 
1387.905;0.0698;-0.0044;0.9946;0.0000;0.0000;0.0000;-2.6532;-4.6967;-21.4838;34.7700 
1387.905;0.0698;-0.0044;0.9946;0.0000;0.0000;0.0000;-2.6477;-4.6967;-21.4893;34.8200 
1387.905;0.0698;-0.0044;0.9946;0.0000;0.0000;0.0000;-2.6367;-4.6912;-21.5002;34.8200 
1387.905;0.0698;-0.0044;0.9946;0.0000;0.0000;0.0000;-2.6312;-4.6912;-21.5057;34.8400 
1387.905;0.0698;-0.0044;0.9946;0.0000;0.0000;0.0000;-2.6257;-4.6912;-21.5167;34.8400 
1387.905;0.0698;-0.0044;0.9946;0.0000;0.0000;0.0000;-2.6202;-4.6857;-21.5222;34.8400 
1387.905;0.0698;-0.0044;0.9946;0.0000;0.0000;0.0000;-2.6093;-4.6857;-21.5277;34.8700 
1387.905;0.0698;-0.0044;0.9946;0.0000;0.0000;0.0000;-2.6038;-4.6857;-21.5387;34.8700 
1387.905;0.0698;-0.0044;0.9946;0.0000;0.0000;0.0000;-2.5983;-4.6802;-21.5442;34.8400 
1387.905;0.0698;-0.0044;0.9946;0.0000;0.0000;0.0000;-2.5873;-4.6802;-21.5497;34.8400 
1387.925;0.0698;-0.0044;0.9946;0.0000;0.0000;0.0000;-2.5818;-4.6802;-21.5552;34.7800 
1387.925;0.0698;-0.0044;0.9946;0.0000;0.0000;0.0000;-2.5763;-4.6747;-21.5662;34.7800 
1387.925;0.0698;-0.0044;0.9946;0.0000;0.0000;0.0000;-2.5653;-4.6747;-21.5717;34.8300 
1387.925;0.0698;-0.0044;0.9946;0.0000;0.0000;0.0000;-2.5598;-4.6747;-21.5826;34.8300 
1387.945;0.0698;-0.0044;0.9946;0.0000;0.0000;0.0000;-2.5543;-4.6692;-21.5881;34.8100 
1387.945;0.0698;-0.0044;0.9946;0.0000;0.0000;0.0000;-2.5488;-4.6692;-21.5991;34.8100 
1387.945;0.0698;-0.0044;0.9946;0.0000;0.0000;0.0000;-2.5378;-4.6692;-21.6046;34.8400 
1387.945;0.0698;-0.0044;0.9951;0.0000;0.0000;0.0000;-2.5323;-4.6637;-21.6156;34.8400 
1387.955;0.0698;-0.0044;0.9951;0.0000;0.0000;0.0000;-2.5269;-4.6637;-21.6211;34.7600 
1387.955;0.0698;-0.0044;0.9951;0.0000;0.0000;0.0000;-2.5214;-4.6637;-21.6321;34.7600 
1387.955;0.0698;-0.0044;0.9951;0.0000;0.0000;0.0000;-2.5104;-4.6582;-21.6376;34.7800 
1387.955;0.0698;-0.0044;0.9951;0.0000;0.0000;0.0000;-2.5049;-4.6582;-21.6431;34.7800 
1387.955;0.0698;-0.0044;0.9951;0.0000;0.0000;0.0000;-2.4994;-4.6582;-21.6541;34.7800 
1387.955;0.0698;-0.0044;0.9951;0.0000;0.0000;0.0000;-2.4939;-4.6582;-21.6595;34.8100 
1387.955;0.0698;-0.0044;0.9951;0.0000;0.0000;0.0000;-2.4829;-4.6527;-21.6705;34.8100 
1387.965;0.0703;-0.0044;0.9951;0.0000;0.0000;0.0000;-2.4774;-4.6527;-21.6760;34.7700 
1387.965;0.0703;-0.0044;0.9951;0.0000;0.0000;0.0000;-2.4719;-4.6527;-21.6815;34.7700 
1387.965;0.0703;-0.0044;0.9951;0.0000;0.0000;0.0000;-2.4664;-4.6472;-21.6925;34.8800 
1387.965;0.0703;-0.0044;0.9951;0.0000;0.0000;0.0000;-2.4554;-4.6472;-21.6980;34.8800 
1387.965;0.0703;-0.0044;0.9951;0.0000;0.0000;0.0000;-2.4500;-4.6472;-21.7090;34.7900 
1387.965;0.0703;-0.0044;0.9951;0.0000;0.0000;0.0000;-2.4445;-4.6417;-21.7200;34.7900 
1387.965;0.0703;-0.0044;0.9951;0.0000;0.0000;0.0000;-2.4390;-4.6417;-21.7255;34.8100 
1387.965;0.0703;-0.0044;0.9951;0.0000;0.0000;0.0000;-2.4335;-4.6417;-21.7365;34.8100 
1387.975;0.0703;-0.0044;0.9951;0.0000;0.0000;0.0000;-2.4225;-4.6362;-21.7419;34.8200 
1387.975;0.0703;-0.0044;0.9951;0.0000;0.0000;0.0000;-2.4170;-4.6362;-21.7474;34.8200 
1387.975;0.0703;-0.0044;0.9951;0.0000;0.0000;0.0000;-2.4115;-4.6362;-21.7529;34.8400 
1387.975;0.0703;-0.0044;0.9951;0.0000;0.0000;0.0000;-2.4060;-4.6362;-21.7584;34.8400 
1387.995;0.0703;-0.0044;0.9951;0.0000;0.0000;0.0000;-2.4005;-4.6307;-21.7694;34.9000 
1387.995;0.0703;-0.0044;0.9951;0.0000;0.0000;0.0000;-2.3895;-4.6307;-21.7749;34.9000 
1387.995;0.0703;-0.0044;0.9951;0.0000;0.0000;0.0000;-2.3840;-4.6307;-21.7804;34.9000 
1387.995;0.0703;-0.0044;0.9951;0.0000;0.0000;0.0000;-2.3785;-4.6252;-21.7859;34.8400 
1387.995;0.0698;-0.0044;0.9951;0.0000;0.0000;0.0000;-2.3730;-4.6252;-21.7969;34.8400 
1387.995;0.0698;-0.0044;0.9951;0.0000;0.0000;0.0000;-2.3676;-4.6252;-21.8024;34.8400 
1387.995;0.0698;-0.0044;0.9951;0.0000;0.0000;0.0000;-2.3621;-4.6198;-21.8079;34.8400 
1387.995;0.0698;-0.0044;0.9951;0.0000;0.0000;0.0000;-2.3511;-4.6198;-21.8134;34.8400 
1387.995;0.0698;-0.0044;0.9951;0.0000;0.0000;0.0000;-2.3456;-4.6198;-21.8188;34.8400 
1387.995;0.0698;-0.0044;0.9951;0.0000;0.0000;0.0000;-2.3401;-4.6143;-21.8243;34.8100 
1387.995;0.0698;-0.0044;0.9951;0.0000;0.0000;0.0000;-2.3346;-4.6143;-21.8353;34.8100 
1388.125;0.0698;-0.0044;0.9951;0.0000;0.0000;0.0000;-2.3291;-4.6143;-21.8408;34.8400 
1388.125;0.0698;-0.0049;0.9951;0.0000;0.0000;0.0000;-2.3236;-4.6143;-21.8463;34.8400 
1388.125;0.0698;-0.0049;0.9951;0.0000;0.0000;0.0000;-2.3181;-4.6088;-21.8573;34.8000 
1388.125;0.0698;-0.0049;0.9951;0.0000;0.0000;0.0000;-2.3071;-4.6088;-21.8628;34.8000 
1388.135;0.0698;-0.0049;0.9951;0.0000;0.0000;0.0000;-2.3016;-4.6088;-21.8683;34.8400 
1388.135;0.0698;-0.0049;0.9951;0.0000;0.0000;0.0000;-2.2961;-4.6033;-21.8793;34.8400 
1388.135;0.0698;-0.0049;0.9951;0.0000;0.0000;0.0000;-2.2906;-4.6033;-21.8903;34.8200 
1388.135;0.0698;-0.0049;0.9951;0.0000;0.0000;0.0000;-2.2852;-4.6033;-21.8958;34.8200 
1388.135;0.0698;-0.0049;0.9951;0.0000;0.0000;0.0000;-2.2797;-4.5978;-21.9067;34.8200 
1388.135;0.0698;-0.0049;0.9951;0.0000;0.0000;0.0000;-2.2742;-4.5978;-21.9122;34.7800 
1388.135;0.0698;-0.0049;0.9951;0.0000;0.0000;0.0000;-2.2687;-4.5978;-21.9177;34.7800 
1388.135;0.0698;-0.0049;0.9951;0.0000;0.0000;0.0000;-2.2632;-4.5978;-21.9287;34.8300 
1388.135;0.0698;-0.0049;0.9951;0.0000;0.0000;0.0000;-2.2522;-4.5923;-21.9342;34.8300 
1388.135;0.0698;-0.0049;0.9951;0.0000;0.0000;0.0000;-2.2467;-4.5923;-21.9452;34.8300 
1388.135;0.0698;-0.0049;0.9951;0.0000;0.0000;0.0000;-2.2412;-4.5923;-21.9507;34.8300 
1388.135;0.0698;-0.0049;0.9951;0.0000;0.0000;0.0000;-2.2357;-4.5868;-21.9562;34.8100 
1388.135;0.0698;-0.0049;0.9951;0.0000;0.0000;0.0000;-2.2302;-4.5868;-21.9617;34.8100 
1388.135;0.0693;-0.0049;0.9951;0.0000;0.0000;0.0000;-2.2247;-4.5868;-21.9727;34.8000 
1388.135;0.0693;-0.0049;0.9951;0.0000;0.0000;0.0000;-2.2192;-4.5868;-21.9781;34.8000 
1388.135;0.0693;-0.0049;0.9951;0.0000;0.0000;0.0000;-2.2137;-4.5813;-21.9836;34.8400 
1388.135;0.0693;-0.0049;0.9951;0.0000;0.0000;0.0000;-2.2083;-4.5813;-21.9891;34.8400 
1388.135;0.0693;-0.0049;0.9951;0.0000;0.0000;0.0000;-2.2028;-4.5813;-21.9946;34.8100 
1388.135;0.0693;-0.0049;0.9951;0.0000;0.0000;0.0000;-2.1973;-4.5758;-22.0001;34.8100 
1388.135;0.0693;-0.0049;0.9951;0.0000;0.0000;0.0000;-2.1918;-4.5758;-22.0056;34.8100 
1388.135;0.0693;-0.0049;0.9951;0.0000;0.0000;0.0000;-2.1863;-4.5758;-22.0111;34.8100 
1388.135;0.0693;-0.0044;0.9951;0.0000;0.0000;0.0000;-2.1808;-4.5703;-22.0166;34.8100 
1388.135;0.0693;-0.0044;0.9951;0.0000;0.0000;0.0000;-2.1698;-4.5703;-22.0276;34.7900 
1388.135;0.0693;-0.0044;0.9951;0.0000;0.0000;0.0000;-2.1643;-4.5703;-22.0331;34.7900 
1388.135;0.0693;-0.0044;0.9951;0.0000;0.0000;0.0000;-2.1588;-4.5648;-22.0386;34.8800 
1388.135;0.0693;-0.0044;0.9951;0.0000;0.0000;0.0000;-2.1533;-4.5648;-22.0441;34.8800 
1388.135;0.0693;-0.0044;0.9951;0.0000;0.0000;0.0000;-2.1478;-4.5648;-22.0496;34.8400 
1388.135;0.0693;-0.0044;0.9951;0.0000;0.0000;0.0000;-2.1423;-4.5648;-22.0551;34.8400 
1388.135;0.0693;-0.0044;0.9951;0.0000;0.0000;0.0000;-2.1368;-4.5593;-22.0551;34.8000 
1388.135;0.0693;-0.0044;0.9946;0.0000;0.0000;0.0000;-2.1313;-4.5593;-22.0605;34.8000 
1388.135;0.0693;-0.0044;0.9946;0.0000;0.0000;0.0000;-2.1259;-4.5593;-22.0660;34.8700 
1388.145;0.0693;-0.0044;0.9946;0.0000;0.0000;0.0000;-2.1204;-4.5538;-22.0715;34.8700 
1388.145;0.0693;-0.0044;0.9946;0.0000;0.0000;0.0000;-2.1149;-4.5538;-22.0715;34.8100 
1388.145;0.0693;-0.0044;0.9946;0.0000;0.0000;0.0000;-2.1094;-4.5538;-22.0770;34.8100 
1388.145;0.0693;-0.0044;0.9946;0.0000;0.0000;0.0000;-2.1039;-4.5483;-22.0825;34.8400 
1388.145;0.0693;-0.0044;0.9946;0.0000;0.0000;0.0000;-2.0984;-4.5483;-22.0825;34.8400 
1388.145;0.0693;-0.0044;0.9946;0.0000;0.0000;0.0000;-2.0929;-4.5483;-22.0880;34.8400 
1388.145;0.0693;-0.0039;0.9946;0.0000;0.0000;0.0000;-2.0874;-4.5483;-22.0935;34.8300 
1388.145;0.0693;-0.0039;0.9946;0.0000;0.0000;0.0000;-2.0819;-4.5428;-22.0935;34.8300 
1388.145;0.0693;-0.0039;0.9946;0.0000;0.0000;0.0000;-2.0764;-4.5428;-22.0990;34.8100 
1388.145;0.0693;-0.0039;0.9946;0.0000;0.0000;0.0000;-2.0709;-4.5428;-22.0990;34.8100 
1388.145;0.0693;-0.0039;0.9946;0.0000;0.0000;0.0000;-2.0654;-4.5374;-22.1045;34.8700 
1388.145;0.0693;-0.0039;0.9946;0.0000;0.0000;0.0000;-2.0599;-4.5374;-22.1045;34.8700 
1388.145;0.0693;-0.0039;0.9946;0.0000;0.0000;0.0000;-2.0544;-4.5374;-22.1100;34.8600 
1388.145;0.0693;-0.0039;0.9946;0.0000;0.0000;0.0000;-2.0490;-4.5374;-22.1100;34.8600 
1388.145;0.0693;-0.0039;0.9946;0.0000;0.0000;0.0000;-2.0435;-4.5319;-22.1155;34.7400 
1388.145;0.0693;-0.0039;0.9946;0.0000;0.0000;0.0000;-2.0380;-4.5319;-22.1155;34.7400 
1388.145;0.0693;-0.0039;0.9946;0.0000;0.0000;0.0000;-2.0325;-4.5319;-22.1210;34.8600 
1388.145;0.0693;-0.0039;0.9946;0.0000;0.0000;0.0000;-2.0270;-4.5264;-22.1265;34.8600 
1388.145;0.0693;-0.0039;0.9946;0.0000;0.0000;0.0000;-2.0215;-4.5264;-22.1265;34.8100 
1388.145;0.0693;-0.0039;0.9946;0.0000;0.0000;0.0000;-2.0160;-4.5264;-22.1320;34.8100 
1388.145;0.0693;-0.0039;0.9946;0.0000;0.0000;0.0000;-2.0105;-4.5264;-22.1320;34.8200 
1388.145;0.0693;-0.0039;0.9946;0.0000;0.0000;0.0000;-2.0050;-4.5209;-22.1320;34.8200 
1388.145;0.0698;-0.0044;0.9946;0.0000;0.0000;0.0000;-1.9995;-4.5209;-22.1375;34.8200 
1388.145;0.0698;-0.0044;0.9946;0.0000;0.0000;0.0000;-1.9940;-4.5209;-22.1375;34.8800 
1388.145;0.0698;-0.0044;0.9946;0.0000;0.0000;0.0000;-1.9885;-4.5154;-22.1375;34.8800 
1388.145;0.0698;-0.0044;0.9946;0.0000;0.0000;0.0000;-1.9830;-4.5154;-22.1429;34.8400 
1388.145;0.0698;-0.0044;0.9946;0.0000;0.0000;0.0000;-1.9775;-4.5154;-22.1484;34.8400 
1388.165;0.0698;-0.0044;0.9946;0.0000;0.0000;0.0000;-1.9720;-4.5154;-22.1484;34.8000 
1388.165;0.0698;-0.0044;0.9946;0.0000;0.0000;0.0000;-1.9666;-4.5099;-22.1594;34.8000 
1388.165;0.0698;-0.0044;0.9946;0.0000;0.0000;0.0000;-1.9611;-4.5099;-22.1649;34.8100 
1388.165;0.0698;-0.0044;0.9946;0.0000;0.0000;0.0000;-1.9556;-4.5099;-22.1704;34.8100 
1388.175;0.0698;-0.0044;0.9946;0.0000;0.0000;0.0000;-1.9501;-4.5099;-22.1759;34.8400 
1388.175;0.0698;-0.0044;0.9946;0.0000;0.0000;0.0000;-1.9446;-4.5044;-22.1814;34.8400 
1388.175;0.0698;-0.0044;0.9946;0.0000;0.0000;0.0000;-1.9391;-4.5044;-22.1869;34.8400 
1388.175;0.0698;-0.0044;0.9946;0.0000;0.0000;0.0000;-1.9391;-4.5044;-22.1924;34.8400 
1388.175;0.0698;-0.0044;0.9946;0.0000;0.0000;0.0000;-1.9336;-4.5044;-22.1924;34.8000 
1388.175;0.0698;-0.0044;0.9946;0.0000;0.0000;0.0000;-1.9281;-4.4989;-22.1979;34.8000 
1388.175;0.0698;-0.0044;0.9946;0.0000;0.0000;0.0000;-1.9226;-4.4989;-22.2034;34.8000 
1388.275;0.0698;-0.0049;0.9941;0.0000;0.0000;0.0000;-1.9171;-4.4989;-22.2089;34.8000 
1388.275;0.0698;-0.0049;0.9941;0.0000;0.0000;0.0000;-1.9116;-4.4989;-22.2089;34.8000 
1388.275;0.0698;-0.0049;0.9941;0.0000;0.0000;0.0000;-1.9061;-4.4934;-22.2144;34.8000 
1388.275;0.0698;-0.0049;0.9941;0.0000;0.0000;0.0000;-1.9006;-4.4934;-22.2144;34.8000 
1388.485;0.0698;-0.0049;0.9941;0.0000;0.0000;0.0000;-1.8951;-4.4934;-22.2198;34.8000 
1388.485;0.0698;-0.0049;0.9941;0.0000;0.0000;0.0000;-1.8896;-4.4934;-22.2198;34.8000 
1388.485;0.0698;-0.0049;0.9941;0.0000;0.0000;0.0000;-1.8896;-4.4879;-22.2253;34.8600 
1388.485;0.0698;-0.0049;0.9941;0.0000;0.0000;0.0000;-1.8842;-4.4879;-22.2253;34.8600 
1388.485;0.0698;-0.0049;0.9937;0.0000;0.0000;0.0000;-1.8787;-4.4879;-22.2308;34.8100 
1388.485;0.0698;-0.0049;0.9937;0.0000;0.0000;0.0000;-1.8732;-4.4879;-22.2363;34.8100 
1388.485;0.0698;-0.0049;0.9937;0.0000;0.0000;0.0000;-1.8677;-4.4824;-22.2363;34.8100 
1388.485;0.0698;-0.0049;0.9937;0.0000;0.0000;0.0000;-1.8622;-4.4824;-22.2418;34.8100 
1388.485;0.0698;-0.0049;0.9937;0.0000;0.0000;0.0000;-1.8567;-4.4824;-22.2418;34.7700 
1388.485;0.0698;-0.0049;0.9937;0.0000;0.0000;0.0000;-1.8512;-4.4824;-22.2473;34.7700 
1388.485;0.0698;-0.0049;0.9937;0.0000;0.0000;0.0000;-1.8512;-4.4769;-22.2473;34.8700 
1388.485;0.0698;-0.0049;0.9937;0.0000;0.0000;0.0000;-1.8457;-4.4769;-22.2528;34.8700 
1388.485;0.0698;-0.0049;0.9937;0.0000;0.0000;0.0000;-1.8402;-4.4769;-22.2528;34.8700 
1388.485;0.0698;-0.0049;0.9937;0.0000;0.0000;0.0000;-1.8347;-4.4769;-22.2528;34.8300 
1388.485;0.0698;-0.0049;0.9937;0.0000;0.0000;0.0000;-1.8292;-4.4714;-22.2583;34.8300 
1388.485;0.0698;-0.0049;0.9937;0.0000;0.0000;0.0000;-1.8237;-4.4714;-22.2583;34.7900 
1388.485;0.0698;-0.0049;0.9937;0.0000;0.0000;0.0000;-1.8182;-4.4714;-22.2638;34.7900 
1388.485;0.0698;-0.0049;0.9937;0.0000;0.0000;0.0000;-1.8182;-4.4714;-22.2638;34.8300 
1388.485;0.0698;-0.0049;0.9937;0.0000;0.0000;0.0000;-1.8127;-4.4659;-22.2638;34.8300 
1388.485;0.0698;-0.0049;0.9937;0.0000;0.0000;0.0000;-1.8073;-4.4659;-22.2638;34.8100 
1388.485;0.0698;-0.0049;0.9937;0.0000;0.0000;0.0000;-1.8018;-4.4659;-22.2693;34.8100 
1388.485;0.0698;-0.0049;0.9937;0.0000;0.0000;0.0000;-1.7963;-4.4659;-22.2693;34.7700 
1388.485;0.0698;-0.0049;0.9937;0.0000;0.0000;0.0000;-1.7908;-4.4604;-22.2748;34.7700 
1388.485;0.0698;-0.0049;0.9937;0.0000;0.0000;0.0000;-1.7853;-4.4604;-22.2803;34.7700 
1388.485;0.0698;-0.0049;0.9937;0.0000;0.0000;0.0000;-1.7853;-4.4604;-22.2803;34.7700 
1388.485;0.0698;-0.0049;0.9937;0.0000;0.0000;0.0000;-1.7798;-4.4604;-22.2858;34.8100 
1388.485;0.0698;-0.0049;0.9937;0.0000;0.0000;0.0000;-1.7743;-4.4604;-22.2913;34.8100 
1388.485;0.0698;-0.0049;0.9941;0.0000;0.0000;0.0000;-1.7688;-4.4550;-22.2968;34.8900 
1388.485;0.0698;-0.0049;0.9941;0.0000;0.0000;0.0000;-1.7633;-4.4550;-22.3022;34.8900 
1388.485;0.0698;-0.0049;0.9941;0.0000;0.0000;0.0000;-1.7633;-4.4550;-22.3077;34.8900 
1388.485;0.0698;-0.0049;0.9941;0.0000;0.0000;0.0000;-1.7578;-4.4550;-22.3187;34.8000 
1388.505;0.0698;-0.0049;0.9941;0.0000;0.0000;0.0000;-1.7523;-4.4495;-22.3187;34.8000 
1388.505;0.0698;-0.0049;0.9941;0.0000;0.0000;0.0000;-1.7468;-4.4495;-22.3242;34.8300 
1388.505;0.0698;-0.0049;0.9941;0.0000;0.0000;0.0000;-1.7413;-4.4495;-22.3297;34.8300 
1388.505;0.0698;-0.0049;0.9941;0.0000;0.0000;0.0000;-1.7358;-4.4495;-22.3352;34.8100 
1388.505;0.0698;-0.0049;0.9941;0.0000;0.0000;0.0000;-1.7358;-4.4440;-22.3407;34.8100 
1388.505;0.0698;-0.0049;0.9941;0.0000;0.0000;0.0000;-1.7303;-4.4440;-22.3462;34.7700 
1388.505;0.0698;-0.0049;0.9941;0.0000;0.0000;0.0000;-1.7249;-4.4440;-22.3517;34.7700 
1388.505;0.0698;-0.0049;0.9941;0.0000;0.0000;0.0000;-1.7194;-4.4440;-22.3572;34.8100 
1388.505;0.0698;-0.0049;0.9941;0.0000;0.0000;0.0000;-1.7139;-4.4440;-22.3572;34.8100 
1388.505;0.0698;-0.0049;0.9941;0.0000;0.0000;0.0000;-1.7139;-4.4385;-22.3627;34.7900 
1388.505;0.0698;-0.0049;0.9941;0.0000;0.0000;0.0000;-1.7084;-4.4385;-22.3682;34.7900 
1388.505;0.0698;-0.0049;0.9941;0.0000;0.0000;0.0000;-1.7029;-4.4385;-22.3737;34.8800 
1388.505;0.0698;-0.0049;0.9946;0.0000;0.0000;0.0000;-1.6974;-4.4385;-22.3737;34.8800 
1388.505;0.0698;-0.0049;0.9946;0.0000;0.0000;0.0000;-1.6974;-4.4385;-22.3792;34.8900 
1388.505;0.0698;-0.0049;0.9946;0.0000;0.0000;0.0000;-1.6919;-4.4330;-22.3846;34.8900 
1388.505;0.0698;-0.0049;0.9946;0.0000;0.0000;0.0000;-1.6864;-4.4330;-22.3846;34.8900 
1388.505;0.0698;-0.0049;0.9946;0.0000;0.0000;0.0000;-1.6809;-4.4330;-22.3901;34.8000 
1388.505;0.0698;-0.0049;0.9946;0.0000;0.0000;0.0000;-1.6754;-4.4330;-22.3901;34.8000 
1388.505;0.0698;-0.0049;0.9946;0.0000;0.0000;0.0000;-1.6754;-4.4275;-22.3956;34.8100 
1388.505;0.0698;-0.0049;0.9946;0.0000;0.0000;0.0000;-1.6699;-4.4275;-22.3956;34.8100 
1388.505;0.0698;-0.0049;0.9946;0.0000;0.0000;0.0000;-1.6644;-4.4275;-22.4011;34.7900 
1388.505;0.0698;-0.0049;0.9946;0.0000;0.0000;0.0000;-1.6589;-4.4275;-22.4011;34.7900 
1388.505;0.0698;-0.0049;0.9946;0.0000;0.0000;0.0000;-1.6589;-4.4275;-22.4066;34.8300 
1388.505;0.0698;-0.0049;0.9946;0.0000;0.0000;0.0000;-1.6534;-4.4220;-22.4121;34.8300 
1388.505;0.0698;-0.0049;0.9946;0.0000;0.0000;0.0000;-1.6479;-4.4220;-22.4121;34.8100 
1388.505;0.0698;-0.0049;0.9946;0.0000;0.0000;0.0000;-1.6425;-4.4220;-22.4176;34.8100 
1388.505;0.0698;-0.0049;0.9946;0.0000;0.0000;0.0000;-1.6425;-4.4220;-22.4231;34.8200 
1388.505;0.0698;-0.0049;0.9946;0.0000;0.0000;0.0000;-1.6370;-4.4165;-22.4231;34.8200 
1388.505;0.0698;-0.0049;0.9946;0.0000;0.0000;0.0000;-1.6315;-4.4165;-22.4286;34.7900 
1388.505;0.0698;-0.0049;0.9946;0.0000;0.0000;0.0000;-1.6260;-4.4165;-22.4341;34.7900 
1388.525;0.0698;-0.0049;0.9946;0.0000;0.0000;0.0000;-1.6260;-4.4165;-22.4341;34.7700 
1388.525;0.0698;-0.0049;0.9946;0.0000;0.0000;0.0000;-1.6205;-4.4165;-22.4396;34.7700 
1388.525;0.0698;-0.0049;0.9946;0.0000;0.0000;0.0000;-1.6150;-4.4110;-22.4396;34.7700 
1388.525;0.0698;-0.0049;0.9946;0.0000;0.0000;0.0000;-1.6095;-4.4110;-22.4451;34.7800 
1388.525;0.0698;-0.0049;0.9946;0.0000;0.0000;0.0000;-1.6095;-4.4110;-22.4451;34.7800 
1388.525;0.0698;-0.0049;0.9946;0.0000;0.0000;0.0000;-1.6040;-4.4110;-22.4506;34.8100 
1388.525;0.0698;-0.0049;0.9951;0.0000;0.0000;0.0000;-1.5985;-4.4110;-22.4506;34.8100 
1388.525;0.0698;-0.0049;0.9951;0.0000;0.0000;0.0000;-1.5930;-4.4055;-22.4506;34.8700 
1388.525;0.0698;-0.0049;0.9951;0.0000;0.0000;0.0000;-1.5930;-4.4055;-22.4506;34.8700 
1388.525;0.0698;-0.0049;0.9951;0.0000;0.0000;0.0000;-1.5875;-4.4055;-22.4506;34.8200 
1388.525;0.0698;-0.0049;0.9951;0.0000;0.0000;0.0000;-1.5820;-4.4055;-22.4506;34.8200 
1388.525;0.0698;-0.0049;0.9951;0.0000;0.0000;0.0000;-1.5820;-4.4000;-22.4506;34.8800 
1388.525;0.0698;-0.0049;0.9951;0.0000;0.0000;0.0000;-1.5765;-4.4000;-22.4561;34.8800 
1388.525;0.0698;-0.0049;0.9951;0.0000;0.0000;0.0000;-1.5710;-4.4000;-22.4561;34.8000 
1388.525;0.0698;-0.0049;0.9951;0.0000;0.0000;0.0000;-1.5656;-4.4000;-22.4561;34.8000 
1388.525;0.0698;-0.0049;0.9951;0.0000;0.0000;0.0000;-1.5656;-4.4000;-22.4561;34.8000 
1388.525;0.0698;-0.0049;0.9951;0.0000;0.0000;0.0000;-1.5601;-4.3945;-22.4615;34.8000 
1388.525;0.0698;-0.0049;0.9951;0.0000;0.0000;0.0000;-1.5546;-4.3945;-22.4615;34.8000 
1388.525;0.0698;-0.0049;0.9951;0.0000;0.0000;0.0000;-1.5546;-4.3945;-22.4670;34.8000 
1388.525;0.0698;-0.0049;0.9951;0.0000;0.0000;0.0000;-1.5491;-4.3945;-22.4670;34.8000 
1388.525;0.0698;-0.0049;0.9951;0.0000;0.0000;0.0000;-1.5436;-4.3945;-22.4725;34.8500 
1388.525;0.0698;-0.0049;0.9951;0.0000;0.0000;0.0000;-1.5436;-4.3890;-22.4780;34.8500 
1388.525;0.0698;-0.0044;0.9951;0.0000;0.0000;0.0000;-1.5381;-4.3890;-22.4780;34.8400 
1388.525;0.0698;-0.0044;0.9951;0.0000;0.0000;0.0000;-1.5326;-4.3890;-22.4835;34.8400 
1388.525;0.0698;-0.0044;0.9951;0.0000;0.0000;0.0000;-1.5271;-4.3890;-22.4890;34.8800 
1388.525;0.0698;-0.0044;0.9951;0.0000;0.0000;0.0000;-1.5271;-4.3890;-22.4890;34.8800 
1388.525;0.0698;-0.0044;0.9951;0.0000;0.0000;0.0000;-1.5216;-4.3835;-22.4945;34.8300 
1388.525;0.0698;-0.0044;0.9951;0.0000;0.0000;0.0000;-1.5161;-4.3835;-22.5000;34.8300 
1388.525;0.0698;-0.0044;0.9951;0.0000;0.0000;0.0000;-1.5161;-4.3835;-22.5055;34.7600 
1388.525;0.0698;-0.0044;0.9951;0.0000;0.0000;0.0000;-1.5106;-4.3835;-22.5110;34.7600 
1388.535;0.0693;-0.0044;0.9951;0.0000;0.0000;0.0000;-1.5051;-4.3835;-22.5165;34.8100 
1388.535;0.0693;-0.0044;0.9951;0.0000;0.0000;0.0000;-1.4996;-4.3781;-22.5220;34.8100 
1388.535;0.0693;-0.0044;0.9951;0.0000;0.0000;0.0000;-1.4996;-4.3781;-22.5275;34.8900 
1388.535;0.0693;-0.0044;0.9951;0.0000;0.0000;0.0000;-1.4941;-4.3781;-22.5330;34.8900 
1388.535;0.0693;-0.0044;0.9951;0.0000;0.0000;0.0000;-1.4886;-4.3781;-22.5330;34.8900 
1388.535;0.0693;-0.0044;0.9951;0.0000;0.0000;0.0000;-1.4886;-4.3781;-22.5439;34.8400 
1388.535;0.0693;-0.0044;0.9951;0.0000;0.0000;0.0000;-1.4832;-4.3726;-22.5439;34.8400 
1388.535;0.0693;-0.0044;0.9951;0.0000;0.0000;0.0000;-1.4777;-4.3726;-22.5494;34.8200 
1388.535;0.0693;-0.0039;0.9946;0.0000;0.0000;0.0000;-1.4777;-4.3726;-22.5549;34.8200 
1388.535;0.0693;-0.0039;0.9946;0.0000;0.0000;0.0000;-1.4722;-4.3726;-22.5604;34.7900 
1388.535;0.0693;-0.0039;0.9946;0.0000;0.0000;0.0000;-1.4667;-4.3726;-22.5604;34.7900 
1388.535;0.0693;-0.0039;0.9946;0.0000;0.0000;0.0000;-1.4667;-4.3671;-22.5659;34.8000 
1388.535;0.0693;-0.0039;0.9946;0.0000;0.0000;0.0000;-1.4612;-4.3671;-22.5714;34.8000 
1388.535;0.0693;-0.0039;0.9946;0.0000;0.0000;0.0000;-1.4557;-4.3671;-22.5714;34.8100 
1388.535;0.0693;-0.0039;0.9946;0.0000;0.0000;0.0000;-1.4557;-4.3671;-22.5769;34.8100 
1388.535;0.0693;-0.0039;0.9946;0.0000;0.0000;0.0000;-1.4502;-4.3671;-22.5769;34.8200 
1388.535;0.0688;-0.0039;0.9946;0.0000;0.0000;0.0000;-1.4447;-4.3616;-22.5824;34.8200 
1388.535;0.0688;-0.0039;0.9946;0.0000;0.0000;0.0000;-1.4447;-4.3616;-22.5879;34.8300 
1388.535;0.0688;-0.0039;0.9946;0.0000;0.0000;0.0000;-1.4392;-4.3616;-22.5879;34.8300 
1388.535;0.0688;-0.0039;0.9946;0.0000;0.0000;0.0000;-1.4337;-4.3616;-22.5934;34.8400 
1388.535;0.0688;-0.0039;0.9946;0.0000;0.0000;0.0000;-1.4337;-4.3616;-22.5989;34.8400 
1388.535;0.0688;-0.0039;0.9946;0.0000;0.0000;0.0000;-1.4282;-4.3561;-22.5989;34.8400 
1388.535;0.0688;-0.0039;0.9946;0.0000;0.0000;0.0000;-1.4227;-4.3561;-22.6044;34.8400 
1388.535;0.0688;-0.0039;0.9946;0.0000;0.0000;0.0000;-1.4227;-4.3561;-22.6044;34.8400 
1388.535;0.0693;-0.0044;0.9946;0.0000;0.0000;0.0000;-1.4172;-4.3561;-22.6099;34.8100 
1388.535;0.0693;-0.0044;0.9946;0.0000;0.0000;0.0000;-1.4117;-4.3561;-22.6154;34.8100 
1388.535;0.0693;-0.0044;0.9946;0.0000;0.0000;0.0000;-1.4117;-4.3506;-22.6154;34.8000 
1388.535;0.0693;-0.0044;0.9946;0.0000;0.0000;0.0000;-1.4063;-4.3506;-22.6208;34.8000 
1388.535;0.0693;-0.0044;0.9946;0.0000;0.0000;0.0000;-1.4008;-4.3506;-22.6263;34.8100 
1388.535;0.0693;-0.0044;0.9946;0.0000;0.0000;0.0000;-1.4008;-4.3506;-22.6318;34.8100 
1388.535;0.0693;-0.0044;0.9946;0.0000;0.0000;0.0000;-1.3953;-4.3506;-22.6318;34.8100 
1388.625;0.0693;-0.0044;0.9946;0.0000;0.0000;0.0000;-1.3898;-4.3451;-22.6373;34.8100 
1388.625;0.0693;-0.0044;0.9946;0.0000;0.0000;0.0000;-1.3898;-4.3451;-22.6428;34.8400 
1388.625;0.0693;-0.0044;0.9946;0.0000;0.0000;0.0000;-1.3843;-4.3451;-22.6428;34.8400 
1388.625;0.0693;-0.0044;0.9946;0.0000;0.0000;0.0000;-1.3843;-4.3451;-22.6483;34.7800 
1388.625;0.0693;-0.0044;0.9946;0.0000;0.0000;0.0000;-1.3788;-4.3451;-22.6483;34.7800 
1388.625;0.0693;-0.0044;0.9946;0.0000;0.0000;0.0000;-1.3733;-4.3396;-22.6538;34.8100 
1388.625;0.0693;-0.0044;0.9946;0.0000;0.0000;0.0000;-1.3733;-4.3396;-22.6538;34.8100 
1388.645;0.0693;-0.0044;0.9946;0.0000;0.0000;0.0000;-1.3678;-4.3396;-22.6593;34.8100 
1388.645;0.0693;-0.0044;0.9946;0.0000;0.0000;0.0000;-1.3623;-4.3396;-22.6593;34.8600 
1388.645;0.0698;-0.0044;0.9946;0.0000;0.0000;0.0000;-1.3623;-4.3396;-22.6593;34.8600 
1388.645;0.0698;-0.0044;0.9946;0.0000;0.0000;0.0000;-1.3568;-4.3396;-22.6648;34.8500 
1388.645;0.0698;-0.0044;0.9946;0.0000;0.0000;0.0000;-1.3568;-4.3341;-22.6648;34.8500 
1388.645;0.0698;-0.0044;0.9946;0.0000;0.0000;0.0000;-1.3513;-4.3341;-22.6648;34.8400 
1388.645;0.0698;-0.0044;0.9946;0.0000;0.0000;0.0000;-1.3458;-4.3341;-22.6703;34.8400 
1388.645;0.0698;-0.0044;0.9946;0.0000;0.0000;0.0000;-1.3458;-4.3341;-22.6703;34.8400 
1388.645;0.0698;-0.0044;0.9946;0.0000;0.0000;0.0000;-1.3403;-4.3341;-22.6758;34.8400 
1388.645;0.0698;-0.0044;0.9946;0.0000;0.0000;0.0000;-1.3403;-4.3286;-22.6758;34.7900 
1388.645;0.0698;-0.0039;0.9941;0.0000;0.0000;0.0000;-1.3348;-4.3286;-22.6813;34.7900 
1388.645;0.0698;-0.0039;0.9941;0.0000;0.0000;0.0000;-1.3293;-4.3286;-22.6868;34.8500 
1388.645;0.0698;-0.0039;0.9941;0.0000;0.0000;0.0000;-1.3293;-4.3286;-22.6868;34.8500 
1388.645;0.0698;-0.0039;0.9941;0.0000;0.0000;0.0000;-1.3239;-4.3286;-22.6923;34.7700 
1388.665;0.0698;-0.0039;0.9941;0.0000;0.0000;0.0000;-1.3239;-4.3286;-22.6978;34.7700 
1388.675;0.0698;-0.0039;0.9941;0.0000;0.0000;0.0000;-1.3184;-4.3286;-22.6978;34.7700 
1388.675;0.0698;-0.0039;0.9941;0.0000;0.0000;0.0000;-1.3129;-4.3231;-22.7032;34.7800 
1388.765;0.0698;-0.0039;0.9941;0.0000;0.0000;0.0000;-1.3129;-4.3231;-22.7032;34.7800 
1388.765;0.0698;-0.0039;0.9937;0.0000;0.0000;0.0000;-1.3074;-4.3231;-22.7087;34.7600 
1388.785;0.0698;-0.0039;0.9937;0.0000;0.0000;0.0000;-1.3074;-4.3231;-22.7087;34.7600 
1388.785;0.0698;-0.0039;0.9937;0.0000;0.0000;0.0000;-1.3019;-4.3231;-22.7087;34.8000 
1388.785;0.0698;-0.0039;0.9937;0.0000;0.0000;0.0000;-1.2964;-4.3231;-22.7142;34.8000 
1388.785;0.0698;-0.0039;0.9937;0.0000;0.0000;0.0000;-1.2964;-4.3176;-22.7142;34.8400 
1388.785;0.0698;-0.0039;0.9937;0.0000;0.0000;0.0000;-1.2909;-4.3176;-22.7142;34.8400 
1388.785;0.0698;-0.0039;0.9937;0.0000;0.0000;0.0000;-1.2909;-4.3176;-22.7197;34.7900 
1388.785;0.0698;-0.0039;0.9937;0.0000;0.0000;0.0000;-1.2854;-4.3176;-22.7197;34.7900 
1388.785;0.0698;-0.0034;0.9937;0.0000;0.0000;0.0000;-1.2799;-4.3176;-22.7197;34.8100 
1388.785;0.0698;-0.0034;0.9937;0.0000;0.0000;0.0000;-1.2799;-4.3176;-22.7252;34.8100 
1388.785;0.0698;-0.0034;0.9937;0.0000;0.0000;0.0000;-1.2744;-4.3121;-22.7307;34.7700 
1388.805;0.0698;-0.0034;0.9937;0.0000;0.0000;0.0000;-1.2744;-4.3121;-22.7307;34.7700 
1388.805;0.0698;-0.0034;0.9937;0.0000;0.0000;0.0000;-1.2689;-4.3121;-22.7362;34.8500 
1388.815;0.0698;-0.0034;0.9937;0.0000;0.0000;0.0000;-1.2634;-4.3121;-22.7362;34.8500 
1388.815;0.0698;-0.0034;0.9937;0.0000;0.0000;0.0000;-1.2634;-4.3121;-22.7417;34.8500 
1388.915;0.0698;-0.0034;0.9937;0.0000;0.0000;0.0000;-1.2579;-4.3121;-22.7472;34.8300 
1388.915;0.0698;-0.0034;0.9932;0.0000;0.0000;0.0000;-1.2579;-4.3121;-22.7527;34.8300 
1388.935;0.0698;-0.0034;0.9932;0.0000;0.0000;0.0000;-1.2524;-4.3066;-22.7582;34.8300 
1388.935;0.0698;-0.0034;0.9932;0.0000;0.0000;0.0000;-1.2469;-4.3066;-22.7582;34.8300 
1388.935;0.0698;-0.0034;0.9932;0.0000;0.0000;0.0000;-1.2469;-4.3066;-22.7637;34.7800 
1388.935;0.0698;-0.0034;0.9932;0.0000;0.0000;0.0000;-1.2415;-4.3066;-22.7637;34.7800 
1388.935;0.0698;-0.0034;0.9932;0.0000;0.0000;0.0000;-1.2415;-4.3066;-22.7637;34.8100 
1388.935;0.0698;-0.0034;0.9932;0.0000;0.0000;0.0000;-1.2360;-4.3066;-22.7637;34.8100 
1388.935;0.0698;-0.0034;0.9932;0.0000;0.0000;0.0000;-1.2360;-4.3011;-22.7692;34.8100 
1388.935;0.0698;-0.0034;0.9937;0.0000;0.0000;0.0000;-1.2305;-4.3011;-22.7692;34.8100 
1388.935;0.0698;-0.0034;0.9937;0.0000;0.0000;0.0000;-1.2250;-4.3011;-22.7692;34.7100 
1388.955;0.0698;-0.0034;0.9937;0.0000;0.0000;0.0000;-1.2250;-4.3011;-22.7692;34.7100 
1388.955;0.0698;-0.0034;0.9937;0.0000;0.0000;0.0000;-1.2195;-4.3011;-22.7747;34.8600 
1388.955;0.0698;-0.0034;0.9937;0.0000;0.0000;0.0000;-1.2195;-4.3011;-22.7747;34.8600 
1388.955;0.0698;-0.0034;0.9937;0.0000;0.0000;0.0000;-1.2140;-4.3011;-22.7747;34.8000 
1388.995;0.0698;-0.0034;0.9937;0.0000;0.0000;0.0000;-1.2140;-4.2957;-22.7802;34.8000 
1388.995;0.0698;-0.0034;0.9937;0.0000;0.0000;0.0000;-1.2085;-4.2957;-22.7802;34.8000 
1388.995;0.0693;-0.0039;0.9937;0.0000;0.0000;0.0000;-1.2030;-4.2957;-22.7802;34.8700 
1388.995;0.0693;-0.0039;0.9937;0.0000;0.0000;0.0000;-1.2030;-4.2957;-22.7856;34.8700 
1389.004;0.0693;-0.0039;0.9937;0.0000;0.0000;0.0000;-1.1975;-4.2957;-22.7856;34.8200 
1389.004;0.0693;-0.0039;0.9937;0.0000;0.0000;0.0000;-1.1975;-4.2957;-22.7856;34.8200 
1389.004;0.0693;-0.0039;0.9937;0.0000;0.0000;0.0000;-1.1920;-4.2902;-22.7856;34.7800 
1389.004;0.0693;-0.0039;0.9937;0.0000;0.0000;0.0000;-1.1920;-4.2902;-22.7911;34.7800 
1389.025;0.0693;-0.0039;0.9937;0.0000;0.0000;0.0000;-1.1865;-4.2902;-22.7911;34.8000 
1389.025;0.0693;-0.0039;0.9937;0.0000;0.0000;0.0000;-1.1865;-4.2902;-22.7911;34.8000 
1389.025;0.0693;-0.0039;0.9937;0.0000;0.0000;0.0000;-1.1810;-4.2902;-22.7966;34.8600 
1389.025;0.0693;-0.0039;0.9937;0.0000;0.0000;0.0000;-1.1810;-4.2902;-22.8021;34.8600 
1389.114;0.0693;-0.0039;0.9937;0.0000;0.0000;0.0000;-1.1755;-4.2847;-22.8021;34.8300 
1389.114;0.0693;-0.0039;0.9937;0.0000;0.0000;0.0000;-1.1755;-4.2847;-22.8076;34.8300 
1389.114;0.0693;-0.0039;0.9937;0.0000;0.0000;0.0000;-1.1700;-4.2847;-22.8131;34.8200 
1389.114;0.0693;-0.0039;0.9937;0.0000;0.0000;0.0000;-1.1700;-4.2847;-22.8186;34.8200 
1389.134;0.0693;-0.0039;0.9937;0.0000;0.0000;0.0000;-1.1646;-4.2847;-22.8186;34.7800 
1389.134;0.0693;-0.0039;0.9937;0.0000;0.0000;0.0000;-1.1646;-4.2847;-22.8241;34.7800 
1389.134;0.0693;-0.0044;0.9937;0.0000;0.0000;0.0000;-1.1591;-4.2847;-22.8296;34.7800 
1389.134;0.0693;-0.0044;0.9937;0.0000;0.0000;0.0000;-1.1591;-4.2792;-22.8296;34.8500 
1389.134;0.0693;-0.0044;0.9937;0.0000;0.0000;0.0000;-1.1536;-4.2792;-22.8351;34.8500 
1389.134;0.0693;-0.0044;0.9937;0.0000;0.0000;0.0000;-1.1536;-4.2792;-22.8351;34.8100 
1389.134;0.0693;-0.0044;0.9937;0.0000;0.0000;0.0000;-1.1481;-4.2792;-22.8351;34.8100 
1389.134;0.0693;-0.0044;0.9937;0.0000;0.0000;0.0000;-1.1481;-4.2792;-22.8406;34.7700 
1389.134;0.0693;-0.0044;0.9937;0.0000;0.0000;0.0000;-1.1426;-4.2792;-22.8406;34.7700 
1389.134;0.0693;-0.0044;0.9937;0.0000;0.0000;0.0000;-1.1426;-4.2737;-22.8461;34.8800 
1389.134;0.0693;-0.0044;0.9932;0.0000;0.0000;0.0000;-1.1371;-4.2737;-22.8461;34.8800 
1389.144;0.0693;-0.0044;0.9932;0.0000;0.0000;0.0000;-1.1371;-4.2737;-22.8461;34.8100 
1389.144;0.0693;-0.0044;0.9932;0.0000;0.0000;0.0000;-1.1316;-4.2737;-22.8461;34.8100 
1389.144;0.0693;-0.0044;0.9932;0.0000;0.0000;0.0000;-1.1316;-4.2737;-22.8461;34.8200 
1389.144;0.0693;-0.0044;0.9932;0.0000;0.0000;0.0000;-1.1261;-4.2737;-22.8516;34.8200 
1389.164;0.0693;-0.0044;0.9932;0.0000;0.0000;0.0000;-1.1261;-4.2737;-22.8516;34.8200 
1389.164;0.0693;-0.0044;0.9932;0.0000;0.0000;0.0000;-1.1206;-4.2682;-22.8516;34.8200 
1389.164;0.0693;-0.0044;0.9932;0.0000;0.0000;0.0000;-1.1206;-4.2682;-22.8516;34.8200 
1389.164;0.0693;-0.0049;0.9932;0.0000;0.0000;0.0000;-1.1151;-4.2682;-22.8516;34.7700 
1389.184;0.0693;-0.0049;0.9932;0.0000;0.0000;0.0000;-1.1151;-4.2682;-22.8516;34.7700 
1389.184;0.0693;-0.0049;0.9932;0.0000;0.0000;0.0000;-1.1096;-4.2682;-22.8516;34.8200 
1389.184;0.0693;-0.0049;0.9932;0.0000;0.0000;0.0000;-1.1096;-4.2682;-22.8516;34.8200 
1389.184;0.0693;-0.0049;0.9932;0.0000;0.0000;0.0000;-1.1041;-4.2682;-22.8571;34.7800 
1389.344;0.0693;-0.0049;0.9932;0.0000;0.0000;0.0000;-1.1041;-4.2627;-22.8571;34.7800 
1389.344;0.0693;-0.0049;0.9932;0.0000;0.0000;0.0000;-1.0986;-4.2627;-22.8571;34.8000 
1389.344;0.0693;-0.0049;0.9932;0.0000;0.0000;0.0000;-1.0986;-4.2627;-22.8625;34.8000 
1389.344;0.0698;-0.0049;0.9937;0.0000;0.0000;0.0000;-1.0986;-4.2627;-22.8625;34.8400 
1389.354;0.0698;-0.0049;0.9937;0.0000;0.0000;0.0000;-1.0931;-4.2627;-22.8625;34.8400 
1389.354;0.0698;-0.0049;0.9937;0.0000;0.0000;0.0000;-1.0931;-4.2627;-22.8625;34.7800 
1389.354;0.0698;-0.0049;0.9937;0.0000;0.0000;0.0000;-1.0876;-4.2627;-22.8625;34.7800 
1389.354;0.0698;-0.0049;0.9937;0.0000;0.0000;0.0000;-1.0876;-4.2572;-22.8625;34.8400 
1389.354;0.0698;-0.0049;0.9937;0.0000;0.0000;0.0000;-1.0822;-4.2572;-22.8625;34.8400 
1389.354;0.0698;-0.0049;0.9937;0.0000;0.0000;0.0000;-1.0822;-4.2572;-22.8680;34.8400 
1389.354;0.0698;-0.0049;0.9937;0.0000;0.0000;0.0000;-1.0767;-4.2572;-22.8680;34.8400 
1389.354;0.0698;-0.0049;0.9937;0.0000;0.0000;0.0000;-1.0767;-4.2572;-22.8625;34.8400 
1389.354;0.0698;-0.0049;0.9937;0.0000;0.0000;0.0000;-1.0767;-4.2572;-22.8680;34.8400 
1389.354;0.0698;-0.0049;0.9937;0.0000;0.0000;0.0000;-1.0712;-4.2572;-22.8680;34.8400 
1389.354;0.0698;-0.0049;0.9937;0.0000;0.0000;0.0000;-1.0712;-4.2572;-22.8680;34.8400 
1389.354;0.0698;-0.0049;0.9937;0.0000;0.0000;0.0000;-1.0657;-4.2517;-22.8680;34.8400 
1389.354;0.0698;-0.0049;0.9937;0.0000;0.0000;0.0000;-1.0657;-4.2517;-22.8680;34.7900 
1389.354;0.0698;-0.0049;0.9937;0.0000;0.0000;0.0000;-1.0602;-4.2517;-22.8735;34.7900 
1389.354;0.0698;-0.0049;0.9937;0.0000;0.0000;0.0000;-1.0602;-4.2517;-22.8735;34.7800 
1389.364;0.0698;-0.0049;0.9941;0.0000;0.0000;0.0000;-1.0547;-4.2517;-22.8735;34.7800 
1389.364;0.0698;-0.0049;0.9941;0.0000;0.0000;0.0000;-1.0547;-4.2517;-22.8735;34.7400 
1389.364;0.0698;-0.0049;0.9941;0.0000;0.0000;0.0000;-1.0547;-4.2517;-22.8735;34.7400 
1389.364;0.0698;-0.0049;0.9941;0.0000;0.0000;0.0000;-1.0492;-4.2517;-22.8790;34.8000 
1389.364;0.0698;-0.0049;0.9941;0.0000;0.0000;0.0000;-1.0492;-4.2462;-22.8790;34.8000 
1389.364;0.0698;-0.0049;0.9941;0.0000;0.0000;0.0000;-1.0437;-4.2462;-22.8790;34.7500 
1389.364;0.0698;-0.0049;0.9941;0.0000;0.0000;0.0000;-1.0437;-4.2462;-22.8790;34.7500 
1389.364;0.0698;-0.0049;0.9941;0.0000;0.0000;0.0000;-1.0437;-4.2462;-22.8845;34.8400 
1389.374;0.0698;-0.0049;0.9946;0.0000;0.0000;0.0000;-1.0382;-4.2462;-22.8845;34.8400 
1389.374;0.0698;-0.0049;0.9946;0.0000;0.0000;0.0000;-1.0382;-4.2462;-22.8845;34.8400 
1389.414;0.0698;-0.0049;0.9946;0.0000;0.0000;0.0000;-1.0327;-4.2462;-22.8845;34.8400 
1389.414;0.0698;-0.0049;0.9946;0.0000;0.0000;0.0000;-1.0327;-4.2462;-22.8900;34.8400 
1389.414;0.0698;-0.0049;0.9946;0.0000;0.0000;0.0000;-1.0272;-4.2407;-22.8900;34.8300 
1389.414;0.0698;-0.0049;0.9946;0.0000;0.0000;0.0000;-1.0272;-4.2407;-22.8900;34.8300 
1389.434;0.0698;-0.0049;0.9946;0.0000;0.0000;0.0000;-1.0272;-4.2407;-22.8955;34.8100 
1389.434;0.0698;-0.0049;0.9946;0.0000;0.0000;0.0000;-1.0217;-4.2407;-22.8955;34.8100 
1389.434;0.0698;-0.0049;0.9946;0.0000;0.0000;0.0000;-1.0217;-4.2407;-22.9010;34.8400 
1389.434;0.0698;-0.0049;0.9946;0.0000;0.0000;0.0000;-1.0162;-4.2407;-22.9010;34.8400 
1389.444;0.0698;-0.0049;0.9946;0.0000;0.0000;0.0000;-1.0162;-4.2407;-22.9010;34.8900 
1389.444;0.0698;-0.0049;0.9946;0.0000;0.0000;0.0000;-1.0162;-4.2407;-22.9065;34.8900 
1389.444;0.0698;-0.0049;0.9946;0.0000;0.0000;0.0000;-1.0107;-4.2352;-22.9065;34.8100 
1389.444;0.0698;-0.0049;0.9946;0.0000;0.0000;0.0000;-1.0107;-4.2352;-22.9120;34.8100 
1389.544;0.0698;-0.0049;0.9946;0.0000;0.0000;0.0000;-1.0052;-4.2352;-22.9120;34.8700 
1389.544;0.0698;-0.0049;0.9946;0.0000;0.0000;0.0000;-1.0052;-4.2352;-22.9175;34.8700 
1389.544;0.0698;-0.0049;0.9951;0.0000;0.0000;0.0000;-1.0052;-4.2352;-22.9175;34.8600 
1389.544