Time;ax;ay;az;wx;wy;wz;AngleX;AngleY;AngleZ;T 
1480.415;0.0049;0.0117;0.9937;0.0000;0.0000;0.0000;0.7745;-0.2087;-53.3551;34.8000 
1480.415;0.0049;0.0117;0.9937;0.0000;0.0000;0.0000;0.7745;-0.2087;-53.3606;34.8000 
1480.415;0.0049;0.0117;0.9937;0.0000;0.0000;0.0000;0.7745;-0.2087;-53.3606;34.8100 
1480.415;0.0049;0.0117;0.9937;0.0000;0.0000;0.0000;0.7745;-0.2087;-53.3606;34.8100 
1480.415;0.0049;0.0117;0.9937;0.0000;0.0000;0.0000;0.7690;-0.2087;-53.3606;34.8500 
1480.415;0.0049;0.0117;0.9937;0.0000;0.0000;0.0000;0.7690;-0.2087;-53.3661;34.8500 
1480.415;0.0039;0.0127;0.9927;0.0000;0.0000;0.0000;0.7690;-0.2087;-53.3661;34.8700 
1480.415;0.0039;0.0127;0.9927;0.0000;0.0000;0.0000;0.7690;-0.2087;-53.3661;34.8700 
1480.415;0.0039;0.0127;0.9927;0.0000;0.0000;0.0000;0.7690;-0.2087;-53.3661;34.7900 
1480.415;0.0039;0.0127;0.9927;0.0000;0.0000;0.0000;0.7690;-0.2087;-53.3661;34.7900 
1480.415;0.0039;0.0127;0.9927;0.0000;0.0000;0.0000;0.7690;-0.2087;-53.3661;34.7900 
1480.415;0.0039;0.0127;0.9927;0.0000;0.0000;0.0000;0.7690;-0.2087;-53.3661;34.8000 
1480.426;0.0039;0.0127;0.9927;0.0000;0.0000;0.0000;0.7690;-0.2087;-53.3661;34.8000 
1480.426;0.0039;0.0127;0.9927;0.0000;0.0000;0.0000;0.7690;-0.2087;-53.3661;34.7900 
1480.436;0.0044;0.0156;0.9927;0.0000;0.0000;0.0000;0.7690;-0.2087;-53.3661;34.7900 
1480.436;0.0044;0.0156;0.9927;0.0000;0.0000;0.0000;0.7690;-0.2087;-53.3661;34.7900 
1480.446;0.0044;0.0156;0.9927;0.0000;0.0000;0.0000;0.7690;-0.2087;-53.3606;34.7900 
1480.446;0.0044;0.0156;0.9927;0.0000;0.0000;0.0000;0.7745;-0.2087;-53.3606;34.8400 
1480.446;0.0044;0.0156;0.9927;0.0000;0.0000;0.0000;0.7745;-0.2087;-53.3606;34.8400 
1480.446;0.0044;0.0156;0.9927;0.0000;0.0000;0.0000;0.7745;-0.2087;-53.3606;34.8100 
1480.446;0.0044;0.0156;0.9927;0.0000;0.0000;0.0000;0.7745;-0.2087;-53.3606;34.8100 
1480.446;0.0044;0.0156;0.9927;0.0000;0.0000;0.0000;0.7745;-0.2087;-53.3606;34.7900 
1480.456;0.0039;0.0137;0.9927;0.0000;0.0000;0.0000;0.7745;-0.2087;-53.3606;34.7900 
1480.456;0.0039;0.0137;0.9927;0.0000;0.0000;0.0000;0.7745;-0.2087;-53.3551;34.8700 
1480.476;0.0039;0.0137;0.9927;0.0000;0.0000;0.0000;0.7745;-0.2087;-53.3551;34.8700 
1480.476;0.0039;0.0137;0.9927;0.0000;0.0000;0.0000;0.7745;-0.2087;-53.3551;34.8700 
1480.476;0.0039;0.0137;0.9927;0.0000;0.0000;0.0000;0.7745;-0.2087;-53.3551;34.8700 
1480.486;0.0039;0.0137;0.9927;0.0000;0.0000;0.0000;0.7745;-0.2087;-53.3551;34.8700 
1480.486;0.0039;0.0137;0.9927;0.0000;0.0000;0.0000;0.7745;-0.2087;-53.3551;34.8600 
1480.496;0.0039;0.0137;0.9927;0.0000;0.0000;0.0000;0.7745;-0.2142;-53.3551;34.8600 
1480.496;0.0044;0.0137;0.9927;0.0000;0.0000;0.0000;0.7745;-0.2142;-53.3551;34.8300 
1480.506;0.0044;0.0137;0.9927;0.0000;0.0000;0.0000;0.7745;-0.2142;-53.3551;34.8300 
1480.506;0.0044;0.0137;0.9927;0.0000;0.0000;0.0000;0.7745;-0.2142;-53.3551;34.8400 
1480.605;0.0044;0.0137;0.9927;0.0000;0.0000;0.0000;0.7745;-0.2142;-53.3551;34.8400 
1480.605;0.0044;0.0137;0.9927;0.0000;0.0000;0.0000;0.7745;-0.2142;-53.3551;34.8500 
1480.615;0.0044;0.0137;0.9927;0.0000;0.0000;0.0000;0.7745;-0.2142;-53.3551;34.8500 
1480.615;0.0044;0.0137;0.9927;0.0000;0.0000;0.0000;0.7745;-0.2142;-53.3551;34.8100 
1480.615;0.0044;0.0137;0.9927;0.0000;0.0000;0.0000;0.7745;-0.2142;-53.3551;34.8100 
1480.615;0.0039;0.0156;0.9927;0.0000;0.0000;0.0000;0.7745;-0.2142;-53.3551;34.8700 
1480.615;0.0039;0.0156;0.9927;0.0000;0.0000;0.0000;0.7745;-0.2142;-53.3551;34.8700 
1480.615;0.0039;0.0156;0.9927;0.0000;0.0000;0.0000;0.7745;-0.2142;-53.3496;34.8900 
1480.615;0.0039;0.0156;0.9927;0.0000;0.0000;0.0000;0.7745;-0.2142;-53.3496;34.8900 
1480.615;0.0039;0.0156;0.9927;0.0000;0.0000;0.0000;0.7745;-0.2142;-53.3496;34.8900 
1480.615;0.0039;0.0156;0.9927;0.0000;0.0000;0.0000;0.7745;-0.2142;-53.3496;34.8100 
1480.615;0.0039;0.0156;0.9927;0.0000;0.0000;0.0000;0.7800;-0.2142;-53.3496;34.8100 
1480.615;0.0039;0.0156;0.9927;0.0000;0.0000;0.0000;0.7800;-0.2142;-53.3551;34.8700 
1480.615;0.0049;0.0137;0.9937;0.0000;0.0000;0.0000;0.7800;-0.2142;-53.3551;34.8700 
1480.615;0.0049;0.0137;0.9937;0.0000;0.0000;0.0000;0.7800;-0.2142;-53.3551;34.8100 
1480.615;0.0049;0.0137;0.9937;0.0000;0.0000;0.0000;0.7800;-0.2142;-53.3606;34.8100 
1480.615;0.0049;0.0137;0.9937;0.0000;0.0000;0.0000;0.7800;-0.2142;-53.3606;34.8500 
1480.615;0.0049;0.0137;0.9937;0.0000;0.0000;0.0000;0.7800;-0.2142;-53.3606;34.8500 
1480.615;0.0049;0.0137;0.9937;0.0000;0.0000;0.0000;0.7800;-0.2142;-53.3606;34.8000 
1480.615;0.0049;0.0137;0.9937;0.0000;0.0000;0.0000;0.7800;-0.2142;-53.3661;34.8000 
1480.615;0.0049;0.0137;0.9937;0.0000;0.0000;0.0000;0.7800;-0.2142;-53.3661;34.8600 
1480.615;0.0039;0.0127;0.9932;0.0000;0.0000;0.0000;0.7800;-0.2142;-53.3661;34.8600 
1480.615;0.0039;0.0127;0.9932;0.0000;0.0000;0.0000;0.7800;-0.2142;-53.3661;34.7900 
1480.615;0.0039;0.0127;0.9932;0.0000;0.0000;0.0000;0.7800;-0.2142;-53.3661;34.7900 
1480.635;0.0039;0.0127;0.9932;0.0000;0.0000;0.0000;0.7800;-0.2142;-53.3661;34.7800 
1480.635;0.0039;0.0127;0.9932;0.0000;0.0000;0.0000;0.7800;-0.2142;-53.3661;34.7800 
1480.635;0.0039;0.0127;0.9932;0.0000;0.0000;0.0000;0.7800;-0.2142;-53.3661;34.7800 
1480.655;0.0039;0.0127;0.9932;0.0000;0.0000;0.0000;0.7800;-0.2142;-53.3661;34.8300 
1480.655;0.0039;0.0127;0.9932;0.0000;0.0000;0.0000;0.7745;-0.2142;-53.3716;34.8300 
1480.655;0.0049;0.0151;0.9937;0.0000;0.0000;0.0000;0.7800;-0.2142;-53.3716;34.8600 
1480.665;0.0049;0.0151;0.9937;0.0000;0.0000;0.0000;0.7800;-0.2142;-53.3716;34.8600 
1480.665;0.0049;0.0151;0.9937;0.0000;0.0000;0.0000;0.7800;-0.2142;-53.3716;34.8100 
1480.665;0.0049;0.0151;0.9937;0.0000;0.0000;0.0000;0.7800;-0.2142;-53.3716;34.8100 
1480.675;0.0049;0.0151;0.9937;0.0000;0.0000;0.0000;0.7800;-0.2142;-53.3716;34.7800 
1480.675;0.0049;0.0151;0.9937;0.0000;0.0000;0.0000;0.7800;-0.2142;-53.3716;34.7800 
1480.685;0.0049;0.0151;0.9937;0.0000;0.0000;0.0000;0.7800;-0.2142;-53.3771;34.8500 
1480.685;0.0049;0.0151;0.9937;0.0000;0.0000;0.0000;0.7800;-0.2142;-53.3771;34.8500 
1480.695;0.0039;0.0132;0.9927;0.0000;0.0000;0.0000;0.7800;-0.2142;-53.3771;34.7600 
1480.695;0.0039;0.0132;0.9927;0.0000;0.0000;0.0000;0.7800;-0.2142;-53.3771;34.7600 
1480.705;0.0039;0.0132;0.9927;0.0000;0.0000;0.0000;0.7800;-0.2142;-53.3771;34.8500 
1480.705;0.0039;0.0132;0.9927;0.0000;0.0000;0.0000;0.7800;-0.2142;-53.3771;34.8500 
1480.715;0.0039;0.0132;0.9927;0.0000;0.0000;0.0000;0.7800;-0.2142;-53.3771;34.8100 
1480.715;0.0039;0.0132;0.9927;0.0000;0.0000;0.0000;0.7800;-0.2142;-53.3771;34.8100 
1480.805;0.0039;0.0132;0.9927;0.0000;0.0000;0.0000;0.7800;-0.2142;-53.3771;34.8100 
1480.805;0.0039;0.0132;0.9927;0.0000;0.0000;0.0000;0.7800;-0.2142;-53.3771;34.8400 
1480.825;0.0039;0.0127;0.9932;0.0000;0.0000;0.0000;0.7800;-0.2142;-53.3771;34.8400 
1480.825;0.0039;0.0127;0.9932;0.0000;0.0000;0.0000;0.7800;-0.2142;-53.3771;34.8100 
1480.825;0.0039;0.0127;0.9932;0.0000;0.0000;0.0000;0.7800;-0.2142;-53.3771;34.8100 
1480.825;0.0039;0.0127;0.9932;0.0000;0.0000;0.0000;0.7800;-0.2142;-53.3826;34.8800 
1480.825;0.0039;0.0127;0.9932;0.0000;0.0000;0.0000;0.7800;-0.2142;-53.3826;34.8800 
1480.825;0.0039;0.0127;0.9932;0.0000;0.0000;0.0000;0.7800;-0.2142;-53.3826;34.7900 
1480.825;0.0039;0.0127;0.9932;0.0000;0.0000;0.0000;0.7800;-0.2142;-53.3826;34.7900 
1480.825;0.0039;0.0127;0.9932;0.0000;0.0000;0.0000;0.7800;-0.2142;-53.3826;34.8500 
1480.825;0.0034;0.0151;0.9927;0.0000;0.0000;0.0000;0.7800;-0.2142;-53.3881;34.8500 
1480.825;0.0034;0.0151;0.9927;0.0000;0.0000;0.0000;0.7800;-0.2142;-53.3881;34.8400 
1480.825;0.0034;0.0151;0.9927;0.0000;0.0000;0.0000;0.7800;-0.2142;-53.3881;34.8400 
1480.825;0.0034;0.0151;0.9927;0.0000;0.0000;0.0000;0.7800;-0.2142;-53.3936;34.8100 
1480.825;0.0034;0.0151;0.9927;0.0000;0.0000;0.0000;0.7800;-0.2142;-53.3936;34.8100 
1480.825;0.0034;0.0151;0.9927;0.0000;0.0000;0.0000;0.7800;-0.2142;-53.3936;34.8100 
1480.825;0.0034;0.0151;0.9927;0.0000;0.0000;0.0000;0.7800;-0.2142;-53.3990;34.8700 
1480.825;0.0034;0.0151;0.9927;0.0000;0.0000;0.0000;0.7800;-0.2142;-53.3990;34.8700 
1480.835;0.0034;0.0137;0.9927;0.0000;0.0000;0.0000;0.7800;-0.2142;-53.3990;34.7200 
1480.835;0.0034;0.0137;0.9927;0.0000;0.0000;0.0000;0.7800;-0.2142;-53.3990;34.7200 
1480.835;0.0034;0.0137;0.9927;0.0000;0.0000;0.0000;0.7800;-0.2142;-53.3990;34.8400 
1480.835;0.0034;0.0137;0.9927;0.0000;0.0000;0.0000;0.7800;-0.2142;-53.3990;34.8400 
1480.835;0.0034;0.0137;0.9927;0.0000;0.0000;0.0000;0.7800;-0.2142;-53.3990;34.8000 
1480.845;0.0034;0.0137;0.9927;0.0000;0.0000;0.0000;0.7800;-0.2142;-53.3990;34.8000 
1480.845;0.0034;0.0137;0.9927;0.0000;0.0000;0.0000;0.7800;-0.2142;-53.3990;34.8100 
1480.855;0.0034;0.0137;0.9927;0.0000;0.0000;0.0000;0.7800;-0.2142;-53.3990;34.8100 
1480.855;0.0044;0.0127;0.9932;0.0000;0.0000;0.0000;0.7800;-0.2142;-53.3990;34.8700 
1480.865;0.0044;0.0127;0.9932;0.0000;0.0000;0.0000;0.7800;-0.2142;-53.3990;34.8700 
1480.865;0.0044;0.0127;0.9932;0.0000;0.0000;0.0000;0.7800;-0.2142;-53.3990;34.8400 
1480.875;0.0044;0.0127;0.9932;0.0000;0.0000;0.0000;0.7800;-0.2142;-53.3936;34.8400 
1480.875;0.0044;0.0127;0.9932;0.0000;0.0000;0.0000;0.7800;-0.2142;-53.3936;34.8600 
1480.895;0.0044;0.0127;0.9932;0.0000;0.0000;0.0000;0.7800;-0.2142;-53.3936;34.8600 
1480.895;0.0044;0.0127;0.9932;0.0000;0.0000;0.0000;0.7800;-0.2142;-53.3990;34.8600 
1480.915;0.0044;0.0127;0.9932;0.0000;0.0000;0.0000;0.7800;-0.2142;-53.3990;34.8800 
1480.915;0.0039;0.0137;0.9922;0.0000;0.0000;0.0000;0.7800;-0.2142;-53.3990;34.8800 
1480.915;0.0039;0.0137;0.9922;0.0000;0.0000;0.0000;0.7800;-0.2142;-53.3990;34.9000 
1480.915;0.0039;0.0137;0.9922;0.0000;0.0000;0.0000;0.7800;-0.2142;-53.3990;34.9000 
1480.915;0.0039;0.0137;0.9922;0.0000;0.0000;0.0000;0.7800;-0.2142;-53.3990;34.8400 
1480.915;0.0039;0.0137;0.9922;0.0000;0.0000;0.0000;0.7800;-0.2142;-53.4045;34.8400 
1481.005;0.0039;0.0137;0.9922;0.0000;0.0000;0.0000;0.7800;-0.2142;-53.4045;34.8100 
1481.005;0.0039;0.0137;0.9922;0.0000;0.0000;0.0000;0.7800;-0.2142;-53.4045;34.8100 
1481.005;0.0039;0.0137;0.9922;0.0000;0.0000;0.0000;0.7800;-0.2142;-53.4045;34.8300 
1481.005;0.0049;0.0142;0.9927;0.0000;0.0000;0.0000;0.7800;-0.2142;-53.4045;34.8300 
1481.025;0.0049;0.0142;0.9927;0.0000;0.0000;0.0000;0.7800;-0.2142;-53.4100;34.8200 
1481.025;0.0049;0.0142;0.9927;0.0000;0.0000;0.0000;0.7800;-0.2142;-53.4100;34.8200 
1481.025;0.0049;0.0142;0.9927;0.0000;0.0000;0.0000;0.7800;-0.2142;-53.4100;34.7600 
1481.025;0.0049;0.0142;0.9927;0.0000;0.0000;0.0000;0.7800;-0.2142;-53.4100;34.7600 
1481.025;0.0049;0.0142;0.9927;0.0000;0.0000;0.0000;0.7800;-0.2197;-53.4045;34.8300 
1481.025;0.0049;0.0142;0.9927;0.0000;0.0000;0.0000;0.7800;-0.2197;-53.4045;34.8300 
1481.025;0.0049;0.0142;0.9927;0.0000;0.0000;0.0000;0.7800;-0.2197;-53.4045;34.8300 
1481.025;0.0039;0.0122;0.9922;0.0000;0.0000;0.0000;0.7800;-0.2197;-53.3990;34.8400 
1481.025;0.0039;0.0122;0.9922;0.0000;0.0000;0.0000;0.7800;-0.2197;-53.3990;34.8400 
1481.025;0.0039;0.0122;0.9922;0.0000;0.0000;0.0000;0.7800;-0.2197;-53.3990;34.8100 
1481.025;0.0039;0.0122;0.9922;0.0000;0.0000;0.0000;0.7800;-0.2197;-53.3936;34.8100 
1481.025;0.0039;0.0122;0.9922;0.0000;0.0000;0.0000;0.7800;-0.2197;-53.3936;34.8100 
1481.025;0.0039;0.0122;0.9922;0.0000;0.0000;0.0000;0.7800;-0.2197;-53.3936;34.8100 
1481.025;0.0039;0.0122;0.9922;0.0000;0.0000;0.0000;0.7800;-0.2197;-53.3936;34.8000 
1481.025;0.0039;0.0122;0.9922;0.0000;0.0000;0.0000;0.7800;-0.2197;-53.3936;34.8000 
1481.025;0.0049;0.0146;0.9927;0.0000;0.0000;0.0000;0.7800;-0.2197;-53.3881;34.8300 
1481.025;0.0049;0.0146;0.9927;0.0000;0.0000;0.0000;0.7800;-0.2197;-53.3881;34.8300 
1481.025;0.0049;0.0146;0.9927;0.0000;0.0000;0.0000;0.7800;-0.2197;-53.3881;34.8400 
1481.025;0.0049;0.0146;0.9927;0.0000;0.0000;0.0000;0.7800;-0.2197;-53.3881;34.8400 
1481.045;0.0049;0.0146;0.9927;0.0000;0.0000;0.0000;0.7800;-0.2197;-53.3881;34.7900 
1481.045;0.0049;0.0146;0.9927;0.0000;0.0000;0.0000;0.7800;-0.2197;-53.3881;34.7900 
1481.045;0.0049;0.0146;0.9927;0.0000;0.0000;0.0000;0.7800;-0.2197;-53.3881;34.8900 
1481.045;0.0049;0.0146;0.9927;0.0000;0.0000;0.0000;0.7800;-0.2197;-53.3881;34.8900 
1481.065;0.0029;0.0146;0.9917;0.0000;0.0000;0.0000;0.7800;-0.2197;-53.3881;34.8900 
1481.065;0.0029;0.0146;0.9917;0.0000;0.0000;0.0000;0.7800;-0.2197;-53.3881;34.8700 
1481.065;0.0029;0.0146;0.9917;0.0000;0.0000;0.0000;0.7800;-0.2197;-53.3881;34.8700 
1481.065;0.0029;0.0146;0.9917;0.0000;0.0000;0.0000;0.7800;-0.2197;-53.3881;34.8000 
1481.075;0.0029;0.0146;0.9917;0.0000;0.0000;0.0000;0.7800;-0.2197;-53.3826;34.8000 
1481.075;0.0029;0.0146;0.9917;0.0000;0.0000;0.0000;0.7800;-0.2197;-53.3826;34.7600 
1481.085;0.0029;0.0146;0.9917;0.0000;0.0000;0.0000;0.7800;-0.2197;-53.3881;34.7600 
1481.085;0.0029;0.0146;0.9917;0.0000;0.0000;0.0000;0.7855;-0.2197;-53.3881;34.8000 
1481.095;0.0044;0.0142;0.9927;0.0000;0.0000;0.0000;0.7855;-0.2197;-53.3881;34.8000 
1481.095;0.0044;0.0142;0.9927;0.0000;0.0000;0.0000;0.7855;-0.2197;-53.3826;34.8500 
1481.105;0.0044;0.0142;0.9927;0.0000;0.0000;0.0000;0.7855;-0.2197;-53.3826;34.8500 
1481.105;0.0044;0.0142;0.9927;0.0000;0.0000;0.0000;0.7855;-0.2197;-53.3826;34.8200 
1481.205;0.0044;0.0142;0.9927;0.0000;0.0000;0.0000;0.7855;-0.2197;-53.3771;34.8200 
1481.205;0.0044;0.0142;0.9927;0.0000;0.0000;0.0000;0.7855;-0.2197;-53.3771;34.8400 
1481.225;0.0044;0.0142;0.9927;0.0000;0.0000;0.0000;0.7855;-0.2197;-53.3771;34.8400 
1481.225;0.0044;0.0142;0.9927;0.0000;0.0000;0.0000;0.7855;-0.2197;-53.3771;34.8800 
1481.225;0.0029;0.0142;0.9917;0.0000;0.0000;0.0000;0.7855;-0.2197;-53.3771;34.8800 
1481.225;0.0029;0.0142;0.9917;0.0000;0.0000;0.0000;0.7855;-0.2197;-53.3771;34.8800 
1481.225;0.0029;0.0142;0.9917;0.0000;0.0000;0.0000;0.7855;-0.2197;-53.3771;34.8400 
1481.225;0.0029;0.0142;0.9917;0.0000;0.0000;0.0000;0.7855;-0.2197;-53.3771;34.8400 
1481.225;0.0029;0.0142;0.9917;0.0000;0.0000;0.0000;0.7855;-0.2197;-53.3771;34.8000 
1481.225;0.0029;0.0142;0.9917;0.0000;0.0000;0.0000;0.7855;-0.2197;-53.3771;34.8000 
1481.225;0.0029;0.0142;0.9917;0.0000;0.0000;0.0000;0.7855;-0.2197;-53.3826;34.7800 
1481.225;0.0029;0.0142;0.9917;0.0000;0.0000;0.0000;0.7855;-0.2197;-53.3826;34.7800 
1481.225;0.0029;0.0146;0.9917;0.0000;0.0000;0.0000;0.7855;-0.2197;-53.3826;34.8400 
1481.225;0.0029;0.0146;0.9917;0.0000;0.0000;0.0000;0.7855;-0.2142;-53.3826;34.8400 
1481.225;0.0029;0.0146;0.9917;0.0000;0.0000;0.0000;0.7855;-0.2142;-53.3826;34.8600 
1481.225;0.0029;0.0146;0.9917;0.0000;0.0000;0.0000;0.7855;-0.2142;-53.3826;34.8600 
1481.225;0.0029;0.0146;0.9917;0.0000;0.0000;0.0000;0.7855;-0.2142;-53.3881;34.8100 
1481.225;0.0029;0.0146;0.9917;0.0000;0.0000;0.0000;0.7855;-0.2142;-53.3826;34.8100 
1481.225;0.0029;0.0146;0.9917;0.0000;0.0000;0.0000;0.7855;-0.2142;-53.3881;34.8300 
1481.225;0.0029;0.0146;0.9917;0.0000;0.0000;0.0000;0.7855;-0.2142;-53.3881;34.8300 
1481.225;0.0044;0.0122;0.9927;0.0000;0.0000;0.0000;0.7855;-0.2142;-53.3881;34.8300 
1481.225;0.0044;0.0122;0.9927;0.0000;0.0000;0.0000;0.7855;-0.2142;-53.3881;34.8600 
1481.225;0.0044;0.0122;0.9927;0.0000;0.0000;0.0000;0.7855;-0.2142;-53.3881;34.8600 
1481.245;0.0044;0.0122;0.9927;0.0000;0.0000;0.0000;0.7855;-0.2142;-53.3881;34.8100 
1481.245;0.0044;0.0122;0.9927;0.0000;0.0000;0.0000;0.7855;-0.2142;-53.3881;34.8100 
1481.255;0.0044;0.0122;0.9927;0.0000;0.0000;0.0000;0.7855;-0.2142;-53.3881;34.8200 
1481.255;0.0044;0.0122;0.9927;0.0000;0.0000;0.0000;0.7855;-0.2142;-53.3881;34.8200 
1481.255;0.0044;0.0122;0.9927;0.0000;0.0000;0.0000;0.7855;-0.2142;-53.3881;34.8300 
1481.255;0.0024;0.0117;0.9912;0.0000;0.0000;0.0000;0.7855;-0.2142;-53.3881;34.8300 
1481.255;0.0024;0.0117;0.9912;0.0000;0.0000;0.0000;0.7855;-0.2142;-53.3881;34.8000 
1481.255;0.0024;0.0117;0.9912;0.0000;0.0000;0.0000;0.7855;-0.2142;-53.3881;34.8000 
1481.265;0.0024;0.0117;0.9912;0.0000;0.0000;0.0000;0.7855;-0.2142;-53.3936;34.8100 
1481.265;0.0024;0.0117;0.9912;0.0000;0.0000;0.0000;0.7855;-0.2142;-53.3936;34.8100 
1481.275;0.0024;0.0117;0.9912;0.0000;0.0000;0.0000;0.7800;-0.2142;-53.3936;34.7900 
1481.275;0.0024;0.0117;0.9912;0.0000;0.0000;0.0000;0.7800;-0.2142;-53.3936;34.7900 
1481.285;0.0024;0.0117;0.9912;0.0000;0.0000;0.0000;0.7800;-0.2142;-53.3990;34.8000 
1481.295;0.0049;0.0142;0.9927;0.0000;0.0000;0.0000;0.7800;-0.2142;-53.3990;34.8000 
1481.295;0.0049;0.0142;0.9927;0.0000;0.0000;0.0000;0.7800;-0.2142;-53.3990;34.8000 
1481.295;0.0049;0.0142;0.9927;0.0000;0.0000;0.0000;0.7800;-0.2142;-53.3990;34.8200 
1481.315;0.0049;0.0142;0.9927;0.0000;0.0000;0.0000;0.7800;-0.2142;-53.3990;34.8200 
1481.315;0.0049;0.0142;0.9927;0.0000;0.0000;0.0000;0.7800;-0.2142;-53.4045;34.8100 
1481.315;0.0049;0.0142;0.9927;0.0000;0.0000;0.0000;0.7855;-0.2142;-53.4045;34.8100 
1481.405;0.0049;0.0142;0.9927;0.0000;0.0000;0.0000;0.7855;-0.2142;-53.4045;34.8000 
1481.405;0.0049;0.0142;0.9927;0.0000;0.0000;0.0000;0.7855;-0.2142;-53.4045;34.8000 
1481.405;0.0029;0.0127;0.9917;0.0000;0.0000;0.0000;0.7855;-0.2142;-53.4045;34.8200 
1481.405;0.0029;0.0127;0.9917;0.0000;0.0000;0.0000;0.7855;-0.2142;-53.4045;34.8200 
1481.415;0.0029;0.0127;0.9917;0.0000;0.0000;0.0000;0.7800;-0.2142;-53.4045;34.8400 
1481.415;0.0029;0.0127;0.9917;0.0000;0.0000;0.0000;0.7800;-0.2142;-53.4045;34.8400 
1481.415;0.0029;0.0127;0.9917;0.0000;0.0000;0.0000;0.7800;-0.2142;-53.4045;34.8000 
1481.415;0.0029;0.0127;0.9917;0.0000;0.0000;0.0000;0.7800;-0.2142;-53.3990;34.8000 
1481.415;0.0029;0.0127;0.9917;0.0000;0.0000;0.0000;0.7800;-0.2142;-53.3990;34.8600 
1481.415;0.0029;0.0127;0.9917;0.0000;0.0000;0.0000;0.7800;-0.2142;-53.3990;34.8600 
1481.415;0.0054;0.0137;0.9927;0.0000;0.0000;0.0000;0.7800;-0.2142;-53.3936;34.8600 
1481.415;0.0054;0.0137;0.9927;0.0000;0.0000;0.0000;0.7800;-0.2142;-53.3936;34.8600 
1481.415;0.0054;0.0137;0.9927;0.0000;0.0000;0.0000;0.7800;-0.2142;-53.3936;34.8600 
1481.415;0.0054;0.0137;0.9927;0.0000;0.0000;0.0000;0.7800;-0.2142;-53.3936;34.8200 
1481.415;0.0054;0.0137;0.9927;0.0000;0.0000;0.0000;0.7800;-0.2142;-53.3936;34.8200 
1481.415;0.0054;0.0137;0.9927;0.0000;0.0000;0.0000;0.7800;-0.2142;-53.3936;34.8100 
1481.415;0.0054;0.0137;0.9927;0.0000;0.0000;0.0000;0.7800;-0.2197;-53.3936;34.8100 
1481.415;0.0054;0.0137;0.9927;0.0000;0.0000;0.0000;0.7800;-0.2197;-53.3881;34.8100 
1481.415;0.0029;0.0142;0.9912;0.0000;0.0000;0.0000;0.7800;-0.2197;-53.3881;34.8100 
1481.415;0.0029;0.0142;0.9912;0.0000;0.0000;0.0000;0.7800;-0.2197;-53.3881;34.8400 
1481.425;0.0029;0.0142;0.9912;0.0000;0.0000;0.0000;0.7800;-0.2142;-53.3881;34.8400 
1481.425;0.0029;0.0142;0.9912;0.0000;0.0000;0.0000;0.7800;-0.2142;-53.3881;34.8900 
1481.445;0.0029;0.0142;0.9912;0.0000;0.0000;0.0000;0.7855;-0.2142;-53.3881;34.8900 
1481.445;0.0029;0.0142;0.9912;0.0000;0.0000;0.0000;0.7855;-0.2142;-53.3826;34.8300 
1481.455;0.0029;0.0142;0.9912;0.0000;0.0000;0.0000;0.7855;-0.2142;-53.3826;34.8300 
1481.455;0.0029;0.0142;0.9912;0.0000;0.0000;0.0000;0.7855;-0.2142;-53.3826;34.8400 
1481.485;0.0059;0.0137;0.9932;0.0000;0.0000;0.0000;0.7855;-0.2142;-53.3826;34.8400 
1481.505;0.0059;0.0137;0.9932;0.0000;0.0000;0.0000;0.7855;-0.2142;-53.3826;34.8600 
1481.505;0.0059;0.0137;0.9932;0.0000;0.0000;0.0000;0.7855;-0.2197;-53.3826;34.8600 
1481.505;0.0059;0.0137;0.9932;0.0000;0.0000;0.0000;0.7855;-0.2197;-53.3826;34.8600 
1481.505;0.0059;0.0137;0.9932;0.0000;0.0000;0.0000;0.7855;-0.2197;-53.3881;34.8700 
1481.505;0.0059;0.0137;0.9932;0.0000;0.0000;0.0000;0.7855;-0.2197;-53.3881;34.8700 
1481.505;0.0059;0.0137;0.9932;0.0000;0.0000;0.0000;0.7855;-0.2197;-53.3881;34.8000 
1481.505;0.0059;0.0137;0.9932;0.0000;0.0000;0.0000;0.7855;-0.2197;-53.3936;34.8000 
1481.505;0.0034;0.0117;0.9917;0.0000;0.0000;0.0000;0.7855;-0.2197;-53.3936;34.8700 
1481.505;0.0034;0.0117;0.9917;0.0000;0.0000;0.0000;0.7855;-0.2197;-53.3936;34.8700 
1481.505;0.0034;0.0117;0.9917;0.0000;0.0000;0.0000;0.7800;-0.2197;-53.3936;34.7900 
1481.515;0.0034;0.0117;0.9917;0.0000;0.0000;0.0000;0.7800;-0.2197;-53.3990;34.7900 
1481.515;0.0034;0.0117;0.9917;0.0000;0.0000;0.0000;0.7800;-0.2197;-53.3990;34.9000 
1481.615;0.0034;0.0117;0.9917;0.0000;0.0000;0.0000;0.7800;-0.2197;-53.3990;34.9000 
1481.615;0.0034;0.0117;0.9917;0.0000;0.0000;0.0000;0.7800;-0.2197;-53.3990;34.8000 
1481.645;0.0034;0.0117;0.9917;0.0000;0.0000;0.0000;0.7800;-0.2197;-53.3990;34.8000 
1481.645;0.0054;0.0151;0.9927;0.0000;0.0000;0.0000;0.7800;-0.2197;-53.3990;34.7600 
1481.645;0.0054;0.0151;0.9927;0.0000;0.0000;0.0000;0.7800;-0.2197;-53.3990;34.7600 
1481.645;0.0054;0.0151;0.9927;0.0000;0.0000;0.0000;0.7800;-0.2197;-53.3990;34.7600 
1481.645;0.0054;0.0151;0.9927;0.0000;0.0000;0.0000;0.7800;-0.2197;-53.3990;34.8600 
1481.645;0.0054;0.0151;0.9927;0.0000;0.0000;0.0000;0.7800;-0.2197;-53.3990;34.8600 
1481.645;0.0054;0.0151;0.9927;0.0000;0.0000;0.0000;0.7855;-0.2197;-53.3990;34.8100 
1481.645;0.0054;0.0151;0.9927;0.0000;0.0000;0.0000;0.7855;-0.2197;-53.3990;34.8100 
1481.645;0.0054;0.0151;0.9927;0.0000;0.0000;0.0000;0.7855;-0.2197;-53.3990;34.7900 
1481.645;0.0029;0.0132;0.9922;0.0000;0.0000;0.0000;0.7855;-0.2197;-53.3990;34.7900 
1481.645;0.0029;0.0132;0.9922;0.0000;0.0000;0.0000;0.7855;-0.2197;-53.3990;34.8100 
1481.645;0.0029;0.0132;0.9922;0.0000;0.0000;0.0000;0.7855;-0.2197;-53.3990;34.8100 
1481.645;0.0029;0.0132;0.9922;0.0000;0.0000;0.0000;0.7855;-0.2197;-53.3936;34.8000 
1481.645;0.0029;0.0132;0.9922;0.0000;0.0000;0.0000;0.7855;-0.2197;-53.3936;34.8000 
1481.655;0.0029;0.0132;0.9922;0.0000;0.0000;0.0000;0.7855;-0.2197;-53.3990;34.8000 
1481.655;0.0029;0.0132;0.9922;0.0000;0.0000;0.0000;0.7855;-0.2197;-53.3990;34.8000 
1481.655;0.0029;0.0132;0.9922;0.0000;0.0000;0.0000;0.7855;-0.2197;-53.3990;34.8100 
1481.655;0.0044;0.0127;0.9932;0.0000;0.0000;0.0000;0.7855;-0.2197;-53.3990;34.8100 
1481.655;0.0044;0.0127;0.9932;0.0000;0.0000;0.0000;0.7800;-0.2197;-53.3990;34.7900 
1481.655;0.0044;0.0127;0.9932;0.0000;0.0000;0.0000;0.7800;-0.2197;-53.3990;34.7900 
1481.655;0.0044;0.0127;0.9932;0.0000;0.0000;0.0000;0.7800;-0.2197;-53.3990;34.7900 
1481.665;0.0044;0.0127;0.9932;0.0000;0.0000;0.0000;0.7800;-0.2197;-53.3990;34.7700 
1481.665;0.0044;0.0127;0.9932;0.0000;0.0000;0.0000;0.7800;-0.2197;-53.3990;34.7700 
1481.665;0.0044;0.0127;0.9932;0.0000;0.0000;0.0000;0.7800;-0.2197;-53.3990;34.8600 
1481.665;0.0044;0.0127;0.9932;0.0000;0.0000;0.0000;0.7800;-0.2197;-53.3990;34.8600 
1481.665;0.0024;0.0146;0.9922;0.0000;0.0000;0.0000;0.7800;-0.2197;-53.3990;34.8100 
1481.665;0.0024;0.0146;0.9922;0.0000;0.0000;0.0000;0.7800;-0.2197;-53.3990;34.8100 
1481.665;0.0024;0.0146;0.9922;0.0000;0.0000;0.0000;0.7800;-0.2197;-53.3990;34.7600 
1481.665;0.0024;0.0146;0.9922;0.0000;0.0000;0.0000;0.7800;-0.2197;-53.3990;34.7600 
1481.685;0.0024;0.0146;0.9922;0.0000;0.0000;0.0000;0.7855;-0.2197;-53.3990;34.8300 
1481.685;0.0024;0.0146;0.9922;0.0000;0.0000;0.0000;0.7855;-0.2197;-53.4045;34.8300 
1481.685;0.0024;0.0146;0.9922;0.0000;0.0000;0.0000;0.7855;-0.2197;-53.4045;34.8100 
1481.685;0.0024;0.0146;0.9922;0.0000;0.0000;0.0000;0.7855;-0.2197;-53.4045;34.8100 
1481.695;0.0034;0.0137;0.9932;0.0000;0.0000;0.0000;0.7855;-0.2197;-53.4045;34.8000 
1481.695;0.0034;0.0137;0.9932;0.0000;0.0000;0.0000;0.7855;-0.2197;-53.4100;34.8000 
1481.715;0.0034;0.0137;0.9932;0.0000;0.0000;0.0000;0.7855;-0.2197;-53.4100;34.8500 
1481.715;0.0034;0.0137;0.9932;0.0000;0.0000;0.0000;0.7855;-0.2197;-53.4100;34.8500 
1481.855;0.0034;0.0137;0.9932;0.0000;0.0000;0.0000;0.7855;-0.2197;-53.4100;34.8500 
1481.855;0.0034;0.0137;0.9932;0.0000;0.0000;0.0000;0.7855;-0.2197;-53.4100;34.8700 
1481.855;0.0034;0.0137;0.9932;0.0000;0.0000;0.0000;0.7855;-0.2197;-53.4100;34.8700 
1481.855;0.0034;0.0137;0.9932;0.0000;0.0000;0.0000;0.7855;-0.2197;-53.4100;34.8100 
1481.855;0.0024;0.0127;0.9922;0.0000;0.0000;0.0000;0.7855;-0.2197;-53.4100;34.8100 
1481.855;0.0024;0.0127;0.9922;0.0000;0.0000;0.0000;0.7855;-0.2142;-53.4100;34.8600 
1481.875;0.0024;0.0127;0.9922;0.0000;0.0000;0.0000;0.7855;-0.2142;-53.4100;34.8600 
1481.875;0.0024;0.0127;0.9922;0.0000;0.0000;0.0000;0.7855;-0.2142;-53.4100;34.8600 
1481.875;0.0024;0.0127;0.9922;0.0000;0.0000;0.0000;0.7855;-0.2142;-53.4100;34.8600 
1481.875;0.0024;0.0127;0.9922;0.0000;0.0000;0.0000;0.7855;-0.2142;-53.4100;34.8200 
1481.875;0.0024;0.0127;0.9922;0.0000;0.0000;0.0000;0.7855;-0.2142;-53.4045;34.8200 
1481.875;0.0024;0.0127;0.9922;0.0000;0.0000;0.0000;0.7800;-0.2142;-53.4045;34.8700 
1481.875;0.0034;0.0156;0.9922;0.0000;0.0000;0.0000;0.7855;-0.2142;-53.4045;34.8700 
1481.875;0.0034;0.0156;0.9922;0.0000;0.0000;0.0000;0.7855;-0.2142;-53.4045;34.8500 
1481.875;0.0034;0.0156;0.9922;0.0000;0.0000;0.0000;0.7855;-0.2142;-53.4045;34.8500 
1481.875;0.0034;0.0156;0.9922;0.0000;0.0000;0.0000;0.7855;-0.2142;-53.4045;34.8100 
1481.875;0.0034;0.0156;0.9922;0.0000;0.0000;0.0000;0.7855;-0.2142;-53.4045;34.8100 
1481.875;0.0034;0.0156;0.9922;0.0000;0.0000;0.0000;0.7855;-0.2142;-53.4045;34.8100 
1481.875;0.0034;0.0156;0.9922;0.0000;0.0000;0.0000;0.7855;-0.2142;-53.4045;34.8200 
1481.875;0.0034;0.0156;0.9922;0.0000;0.0000;0.0000;0.7855;-0.2142;-53.4045;34.8200 
1481.875;0.0034;0.0137;0.9922;0.0000;0.0000;0.0000;0.7855;-0.2142;-53.3990;34.8100 
1481.875;0.0034;0.0137;0.9922;0.0000;0.0000;0.0000;0.7855;-0.2142;-53.3990;34.8100 
1481.875;0.0034;0.0137;0.9922;0.0000;0.0000;0.0000;0.7855;-0.2142;-53.3990;34.8100 
1481.875;0.0034;0.0137;0.9922;0.0000;0.0000;0.0000;0.7855;-0.2142;-53.3936;34.8100 
1481.875;0.0034;0.0137;0.9922;0.0000;0.0000;0.0000;0.7855;-0.2142;-53.3936;34.8100 
1481.875;0.0034;0.0137;0.9922;0.0000;0.0000;0.0000;0.7855;-0.2142;-53.3936;34.8100 
1481.875;0.0034;0.0137;0.9922;0.0000;0.0000;0.0000;0.7855;-0.2142;-53.3936;34.8500 
1481.875;0.0034;0.0137;0.9922;0.0000;0.0000;0.0000;0.7855;-0.2142;-53.3881;34.8500 
1481.875;0.0044;0.0117;0.9922;0.0000;0.0000;0.0000;0.7855;-0.2142;-53.3881;34.8400 
1481.875;0.0044;0.0117;0.9922;0.0000;0.0000;0.0000;0.7855;-0.2142;-53.3881;34.8400 
1481.875;0.0044;0.0117;0.9922;0.0000;0.0000;0.0000;0.7855;-0.2142;-53.3881;34.8100 
1481.875;0.0044;0.0117;0.9922;0.0000;0.0000;0.0000;0.7855;-0.2142;-53.3881;34.8100 
1481.875;0.0044;0.0117;0.9922;0.0000;0.0000;0.0000;0.7855;-0.2142;-53.3881;34.8100 
1481.895;0.0044;0.0117;0.9922;0.0000;0.0000;0.0000;0.7855;-0.2142;-53.3881;34.7800 
1481.895;0.0044;0.0117;0.9922;0.0000;0.0000;0.0000;0.7855;-0.2142;-53.3881;34.7800 
1481.895;0.0044;0.0117;0.9922;0.0000;0.0000;0.0000;0.7855;-0.2142;-53.3881;34.8400 
1481.895;0.0044;0.0137;0.9922;0.0000;0.0000;0.0000;0.7855;-0.2142;-53.3881;34.8400 
1482.035;0.0044;0.0137;0.9922;0.0000;0.0000;0.0000;0.7855;-0.2142;-53.3881;34.7900 
1482.035;0.0044;0.0137;0.9922;0.0000;0.0000;0.0000;0.7855;-0.2142;-53.3881;34.7900 
1482.035;0.0044;0.0137;0.9922;0.0000;0.0000;0.0000;0.7855;-0.2142;-53.3881;34.8100 
1482.035;0.0044;0.0137;0.9922;0.0000;0.0000;0.0000;0.7855;-0.2142;-53.3881;34.8100 
1482.035;0.0044;0.0137;0.9922;0.0000;0.0000;0.0000;0.7855;-0.2142;-53.3936;34.8200 
1482.055;0.0044;0.0137;0.9922;0.0000;0.0000;0.0000;0.7855;-0.2142;-53.3936;34.8200 
1482.055;0.0044;0.0137;0.9922;0.0000;0.0000;0.0000;0.7855;-0.2142;-53.3936;34.8700 
1482.055;0.0054;0.0127;0.9927;0.0000;0.0000;0.0000;0.7855;-0.2142;-53.3936;34.8700 
1482.055;0.0054;0.0127;0.9927;0.0000;0.0000;0.0000;0.7855;-0.2142;-53.3936;34.8500 
1482.055;0.0054;0.0127;0.9927;0.0000;0.0000;0.0000;0.7855;-0.2142;-53.3990;34.8500 
1482.055;0.0054;0.0127;0.9927;0.0000;0.0000;0.0000;0.7855;-0.2197;-53.3990;34.8100 
1482.055;0.0054;0.0127;0.9927;0.0000;0.0000;0.0000;0.7855;-0.2197;-53.3990;34.8100 
1482.055;0.0054;0.0127;0.9927;0.0000;0.0000;0.0000;0.7855;-0.2197;-53.4045;34.8100 
1482.055;0.0054;0.0127;0.9927;0.0000;0.0000;0.0000;0.7800;-0.2197;-53.4045;34.7700 
1482.055;0.0054;0.0127;0.9927;0.0000;0.0000;0.0000;0.7800;-0.2197;-53.4100;34.7700 
1482.055;0.0044;0.0107;0.9932;0.0000;0.0000;0.0000;0.7800;-0.2197;-53.4155;34.8700 
1482.055;0.0044;0.0107;0.9932;0.0000;0.0000;0.0000;0.7800;-0.2197;-53.4155;34.8700 
1482.055;0.0044;0.0107;0.9932;0.0000;0.0000;0.0000;0.7800;-0.2197;-53.4210;34.8200 
1482.055;0.0044;0.0107;0.9932;0.0000;0.0000;0.0000;0.7800;-0.2197;-53.4210;34.8200 
1482.055;0.0044;0.0107;0.9932;0.0000;0.0000;0.0000;0.7800;-0.2197;-53.4210;34.8100 
1482.055;0.0044;0.0107;0.9932;0.0000;0.0000;0.0000;0.7800;-0.2197;-53.4210;34.8100 
1482.055;0.0044;0.0107;0.9932;0.0000;0.0000;0.0000;0.7800;-0.2197;-53.4265;34.8000 
1482.055;0.0044;0.0107;0.9932;0.0000;0.0000;0.0000;0.7800;-0.2197;-53.4265;34.8000 
1482.055;0.0049;0.0142;0.9932;0.0000;0.0000;0.0000;0.7800;-0.2197;-53.4320;34.8500 
1482.055;0.0049;0.0142;0.9932;0.0000;0.0000;0.0000;0.7800;-0.2197;-53.4320;34.8500 
1482.055;0.0049;0.0142;0.9932;0.0000;0.0000;0.0000;0.7800;-0.2197;-53.4320;34.8200 
1482.055;0.0049;0.0142;0.9932;0.0000;0.0000;0.0000;0.7800;-0.2197;-53.4375;34.8200 
1482.055;0.0049;0.0142;0.9932;0.0000;0.0000;0.0000;0.7800;-0.2197;-53.4375;34.8100 
1482.055;0.0049;0.0142;0.9932;0.0000;0.0000;0.0000;0.7800;-0.2197;-53.4430;34.8100 
1482.055;0.0049;0.0142;0.9932;0.0000;0.0000;0.0000;0.7800;-0.2197;-53.4430;34.8100 
1482.055;0.0049;0.0142;0.9932;0.0000;0.0000;0.0000;0.7800;-0.2197;-53.4430;34.8300 
1482.055;0.0044;0.0132;0.9927;0.0000;0.0000;0.0000;0.7800;-0.2197;-53.4485;34.8300 
1482.055;0.0044;0.0132;0.9927;0.0000;0.0000;0.0000;0.7800;-0.2197;-53.4485;34.8400 
1482.075;0.0044;0.0132;0.9927;0.0000;0.0000;0.0000;0.7800;-0.2197;-53.4485;34.8400 
1482.075;0.0044;0.0132;0.9927;0.0000;0.0000;0.0000;0.7800;-0.2197;-53.4485;34.7900 
1482.195;0.0044;0.0132;0.9927;0.0000;0.0000;0.0000;0.7800;-0.2197;-53.4485;34.7900 
1482.205;0.0044;0.0132;0.9927;0.0000;0.0000;0.0000;0.7800;-0.2197;-53.4485;34.8800 
1482.205;0.0044;0.0132;0.9927;0.0000;0.0000;0.0000;0.7800;-0.2197;-53.4485;34.8800 
1482.205;0.0044;0.0132;0.9927;0.0000;0.0000;0.0000;0.7800;-0.2197;-53.4485;34.8100 
1482.205;0.0044;0.0122;0.9932;0.0000;0.0000;0.0000;0.7800;-0.2197;-53.4485;34.8100 
1482.205;0.0044;0.0122;0.9932;0.0000;0.0000;0.0000;0.7800;-0.2197;-53.4485;34.8200 
1482.205;0.0044;0.0122;0.9932;0.0000;0.0000;0.0000;0.7800;-0.2197;-53.4540;34.8200 
1482.205;0.0044;0.0122;0.9932;0.0000;0.0000;0.0000;0.7800;-0.2197;-53.4485;34.9100 
1482.205;0.0044;0.0122;0.9932;0.0000;0.0000;0.0000;0.7800;-0.2197;-53.4485;34.9100 
1482.205;0.0044;0.0122;0.9932;0.0000;0.0000;0.0000;0.7800;-0.2197;-53.4485;34.8000 
1482.205;0.0044;0.0122;0.9932;0.0000;0.0000;0.0000;0.7800;-0.2197;-53.4485;34.8000 
1482.205;0.0044;0.0122;0.9932;0.0000;0.0000;0.0000;0.7800;-0.2197;-53.4485;34.8000 
1482.205;0.0039;0.0146;0.9927;0.0000;0.0000;0.0000;0.7800;-0.2197;-53.4485;34.8300 
1482.205;0.0039;0.0146;0.9927;0.0000;0.0000;0.0000;0.7800;-0.2197;-53.4485;34.8300 
1482.205;0.0039;0.0146;0.9927;0.0000;0.0000;0.0000;0.7800;-0.2197;-53.4485;34.8500 
1482.205;0.0039;0.0146;0.9927;0.0000;0.0000;0.0000;0.7800;-0.2197;-53.4485;34.8500 
1482.205;0.0039;0.0146;0.9927;0.0000;0.0000;0.0000;0.7800;-0.2197;-53.4485;34.8500 
1482.205;0.0039;0.0146;0.9927;0.0000;0.0000;0.0000;0.7800;-0.2197;-53.4485;34.8500 
1482.205;0.0039;0.0146;0.9927;0.0000;0.0000;0.0000;0.7800;-0.2197;-53.4485;34.7800 
1482.225;0.0039;0.0146;0.9927;0.0000;0.0000;0.0000;0.7800;-0.2197;-53.4485;34.7800 
1482.225;0.0044;0.0151;0.9927;0.0000;0.0000;0.0000;0.7800;-0.2197;-53.4430;34.8300 
1482.225;0.0044;0.0151;0.9927;0.0000;0.0000;0.0000;0.7800;-0.2197;-53.4430;34.8300 
1482.225;0.0044;0.0151;0.9927;0.0000;0.0000;0.0000;0.7800;-0.2197;-53.4430;34.8700 
1482.235;0.0044;0.0151;0.9927;0.0000;0.0000;0.0000;0.7800;-0.2197;-53.4430;34.8700 
1482.235;0.0044;0.0151;0.9927;0.0000;0.0000;0.0000;0.7800;-0.2197;-53.4430;34.7800 
1482.235;0.0044;0.0151;0.9927;0.0000;0.0000;0.0000;0.7800;-0.2197;-53.4430;34.7800 
1482.235;0.0044;0.0151;0.9927;0.0000;0.0000;0.0000;0.7800;-0.2197;-53.4430;34.7800 
1482.235;0.0044;0.0151;0.9927;0.0000;0.0000;0.0000;0.7800;-0.2197;-53.4430;34.9200 
1482.235;0.0034;0.0132;0.9922;0.0000;0.0000;0.0000;0.7800;-0.2197;-53.4430;34.9200 
1482.245;0.0034;0.0132;0.9922;0.0000;0.0000;0.0000;0.7800;-0.2197;-53.4430;34.8700 
1482.245;0.0034;0.0132;0.9922;0.0000;0.0000;0.0000;0.7800;-0.2197;-53.4430;34.8700 
1482.245;0.0034;0.0132;0.9922;0.0000;0.0000;0.0000;0.7800;-0.2197;-53.4430;34.8300 
1482.245;0.0034;0.0132;0.9922;0.0000;0.0000;0.0000;0.7800;-0.2197;-53.4430;34.8300 
1482.245;0.0034;0.0132;0.9922;0.0000;0.0000;0.0000;0.7800;-0.2197;-53.4430;34.8700 
1482.245;0.0034;0.0132;0.9922;0.0000;0.0000;0.0000;0.7800;-0.2197;-53.4485;34.8700 
1482.245;0.0034;0.0132;0.9922;0.0000;0.0000;0.0000;0.7800;-0.2197;-53.4485;34.7700 
1482.255;0.0044;0.0151;0.9932;0.0000;0.0000;0.0000;0.7800;-0.2197;-53.4485;34.7700 
1482.255;0.0044;0.0151;0.9932;0.0000;0.0000;0.0000;0.7800;-0.2197;-53.4485;34.7900 
1482.255;0.0044;0.0151;0.9932;0.0000;0.0000;0.0000;0.7800;-0.2197;-53.4485;34.7900 
1482.265;0.0044;0.0151;0.9932;0.0000;0.0000;0.0000;0.7800;-0.2197;-53.4485;34.8200 
1482.275;0.0044;0.0151;0.9932;0.0000;0.0000;0.0000;0.7855;-0.2197;-53.4485;34.8200 
1482.275;0.0044;0.0151;0.9932;0.0000;0.0000;0.0000;0.7855;-0.2197;-53.4485;34.8600 
1482.285;0.0044;0.0151;0.9932;0.0000;0.0000;0.0000;0.7855;-0.2197;-53.4485;34.8600 
1482.285;0.0044;0.0151;0.9932;0.0000;0.0000;0.0000;0.7855;-0.2197;-53.4485;34.8600 
1482.304;0.0034;0.0146;0.9927;0.0000;0.0000;0.0000;0.7855;-0.2197;-53.4430;34.8400 
1482.304;0.0034;0.0146;0.9927;0.0000;0.0000;0.0000;0.7855;-0.2197;-53.4430;34.8400 
1482.404;0.0034;0.0146;0.9927;0.0000;0.0000;0.0000;0.7855;-0.2197;-53.4430;34.8400 
1482.404;0.0034;0.0146;0.9927;0.0000;0.0000;0.0000;0.7855;-0.2197;-53.4430;34.8400 
1482.404;0.0034;0.0146;0.9927;0.0000;0.0000;0.0000;0.7855;-0.2197;-53.4375;34.8800 
1482.404;0.0034;0.0146;0.9927;0.0000;0.0000;0.0000;0.7855;-0.2197;-53.4375;34.8800 
1482.404;0.0034;0.0146;0.9927;0.0000;0.0000;0.0000;0.7855;-0.2197;-53.4375;34.8600 
1482.404;0.0034;0.0146;0.9927;0.0000;0.0000;0.0000;0.7855;-0.2197;-53.4375;34.8600 
1482.414;0.0044;0.0132;0.9932;0.0000;0.0000;0.0000;0.7855;-0.2197;-53.4375;34.8700 
1482.414;0.0044;0.0132;0.9932;0.0000;0.0000;0.0000;0.7855;-0.2197;-53.4375;34.8700 
1482.414;0.0044;0.0132;0.9932;0.0000;0.0000;0.0000;0.7855;-0.2197;-53.4375;34.8000 
1482.414;0.0044;0.0132;0.9932;0.0000;0.0000;0.0000;0.7855;-0.2197;-53.4375;34.8000 
1482.414;0.0044;0.0132;0.9932;0.0000;0.0000;0.0000;0.7855;-0.2197;-53.4375;34.8400 
1482.414;0.0044;0.0132;0.9932;0.0000;0.0000;0.0000;0.7855;-0.2197;-53.4375;34.8400 
1482.414;0.0044;0.0132;0.9932;0.0000;0.0000;0.0000;0.7855;-0.2197;-53.4375;34.8600 
1482.414;0.0044;0.0132;0.9932;0.0000;0.0000;0.0000;0.7855;-0.2197;-53.4375;34.8600 
1482.414;0.0034;0.0142;0.9927;0.0000;0.0000;0.0000;0.7855;-0.2197;-53.4375;34.8600 
1482.414;0.0034;0.0142;0.9927;0.0000;0.0000;0.0000;0.7855;-0.2197;-53.4375;34.7700 
1482.414;0.0034;0.0142;0.9927;0.0000;0.0000;0.0000;0.7855;-0.2197;-53.4375;34.7700 
1482.414;0.0034;0.0142;0.9927;0.0000;0.0000;0.0000;0.7855;-0.2197;-53.4320;34.8600 
1482.414;0.0034;0.0142;0.9927;0.0000;0.0000;0.0000;0.7855;-0.2197;-53.4320;34.8600 
1482.414;0.0034;0.0142;0.9927;0.0000;0.0000;0.0000;0.7855;-0.2197;-53.4265;34.8500 
1482.414;0.0034;0.0142;0.9927;0.0000;0.0000;0.0000;0.7855;-0.2197;-53.4265;34.8500 
1482.424;0.0034;0.0142;0.9927;0.0000;0.0000;0.0000;0.7855;-0.2197;-53.4265;34.8300 
1482.424;0.0039;0.0146;0.9932;0.0000;0.0000;0.0000;0.7855;-0.2197;-53.4265;34.8300 
1482.444;0.0039;0.0146;0.9932;0.0000;0.0000;0.0000;0.7855;-0.2197;-53.4210;34.8300 
1482.444;0.0039;0.0146;0.9932;0.0000;0.0000;0.0000;0.7855;-0.2197;-53.4210;34.8300 
1482.444;0.0039;0.0146;0.9932;0.0000;0.0000;0.0000;0.7855;-0.2197;-53.4210;34.8400 
1482.444;0.0039;0.0146;0.9932;0.0000;0.0000;0.0000;0.7855;-0.2197;-53.4210;34.8400 
1482.444;0.0039;0.0146;0.9932;0.0000;0.0000;0.0000;0.7855;-0.2197;-53.4210;34.8400 
1482.444;0.0039;0.0146;0.9932;0.0000;0.0000;0.0000;0.7855;-0.2197;-53.4155;34.8400 
1482.454;0.0039;0.0146;0.9932;0.0000;0.0000;0.0000;0.7855;-0.2197;-53.4155;34.8100 
1482.454;0.0034;0.0132;0.9927;0.0000;0.0000;0.0000;0.7855;-0.2197;-53.4155;34.8100 
1482.464;0.0034;0.0132;0.9927;0.0000;0.0000;0.0000;0.7855;-0.2197;-53.4155;34.8100 
1482.464;0.0034;0.0132;0.9927;0.0000;0.0000;0.0000;0.7855;-0.2197;-53.4155;34.8600 
1482.474;0.0034;0.0132;0.9927;0.0000;0.0000;0.0000;0.7855;-0.2197;-53.4155;34.8600 
1482.474;0.0034;0.0132;0.9927;0.0000;0.0000;0.0000;0.7855;-0.2197;-53.4155;34.8500 
1482.484;0.0034;0.0132;0.9927;0.0000;0.0000;0.0000;0.7855;-0.2197;-53.4155;34.8500 
1482.484;0.0034;0.0132;0.9927;0.0000;0.0000;0.0000;0.7855;-0.2197;-53.4155;34.7800 
1482.494;0.0034;0.0132;0.9927;0.0000;0.0000;0.0000;0.7855;-0.2197;-53.4155;34.7800 
1482.494;0.0039;0.0142;0.9932;0.0000;0.0000;0.0000;0.7855;-0.2197;-53.4155;34.8100 
1482.504;0.0039;0.0142;0.9932;0.0000;0.0000;0.0000;0.7855;-0.2197;-53.4155;34.8100 
1482.504;0.0039;0.0142;0.9932;0.0000;0.0000;0.0000;0.7855;-0.2197;-53.4155;34.8500 
1482.514;0.0039;0.0142;0.9932;0.0000;0.0000;0.0000;0.7855;-0.2197;-53.4155;34.8500 
1482.514;0.0039;0.0142;0.9932;0.0000;0.0000;0.0000;0.7855;-0.2197;-53.4155;34.8000 
1482.614;0.0039;0.0142;0.9932;0.0000;0.0000;0.0000;0.7855;-0.2197;-53.4155;34.8000 
1482.614;0.0039;0.0142;0.9932;0.0000;0.0000;0.0000;0.7855;-0.2197;-53.4155;34.8200 
1482.624;0.0039;0.0142;0.9932;0.0000;0.0000;0.0000;0.7855;-0.2197;-53.4100;34.8200 
1482.624;0.0029;0.0142;0.9922;0.0000;0.0000;0.0000;0.7855;-0.2197;-53.4100;34.8100 
1482.624;0.0029;0.0142;0.9922;0.0000;0.0000;0.0000;0.7855;-0.2197;-53.4100;34.8100 
1482.624;0.0029;0.0142;0.9922;0.0000;0.0000;0.0000;0.7855;-0.2197;-53.4100;34.8100 
1482.624;0.0029;0.0142;0.9922;0.0000;0.0000;0.0000;0.7855;-0.2197;-53.4100;34.8100 
1482.624;0.0029;0.0142;0.9922;0.0000;0.0000;0.0000;0.7855;-0.2197;-53.4100;34.8100 
1482.624;0.0029;0.0142;0.9922;0.0000;0.0000;0.0000;0.7855;-0.2197;-53.4100;34.7900 
1482.624;0.0029;0.0142;0.9922;0.0000;0.0000;0.0000;0.7910;-0.2197;-53.4100;34.7900 
1482.624;0.0029;0.0142;0.9922;0.0000;0.0000;0.0000;0.7910;-0.2197;-53.4100;34.8000 
1482.624;0.0034;0.0142;0.9922;0.0000;0.0000;0.0000;0.7910;-0.2197;-53.4100;34.8000 
1482.624;0.0034;0.0142;0.9922;0.0000;0.0000;0.0000;0.7910;-0.2197;-53.4155;34.8800 
1482.624;0.0034;0.0142;0.9922;0.0000;0.0000;0.0000;0.7910;-0.2197;-53.4155;34.8800 
1482.624;0.0034;0.0142;0.9922;0.0000;0.0000;0.0000;0.7910;-0.2197;-53.4155;34.8200 
1482.624;0.0034;0.0142;0.9922;0.0000;0.0000;0.0000;0.7910;-0.2197;-53.4155;34.8200 
1482.624;0.0034;0.0142;0.9922;0.0000;0.0000;0.0000;0.7910;-0.2197;-53.4155;34.7900 
1482.624;0.0034;0.0142;0.9922;0.0000;0.0000;0.0000;0.7910;-0.2197;-53.4155;34.7900 
1482.624;-0.0522;0.0181;1.0200;0.0000;0.0000;0.0000;0.7910;-0.2087;-53.4155;34.7600 
1482.624;-0.0522;0.0181;1.0200;0.0000;0.0000;0.0000;0.7910;-0.1978;-53.4155;34.7600 
1482.624;-0.0522;0.0181;1.0200;0.0000;0.0000;0.0000;0.7910;-0.1923;-53.4155;34.7600 
1482.624;-0.0522;0.0181;1.0200;0.0000;0.0000;0.0000;0.7910;-0.1813;-53.4155;34.8100 
1482.624;-0.0522;0.0181;1.0200;0.0000;0.0000;0.0000;0.7910;-0.1703;-53.4155;34.8100 
1482.634;-0.0522;0.0181;1.0200;0.0000;0.0000;0.0000;0.7910;-0.1648;-53.4100;34.8000 
1482.634;-0.0522;0.0181;1.0200;0.0000;0.0000;0.0000;0.7965;-0.1538;-53.4100;34.8000 
1482.664;-0.0522;0.0181;1.0200;0.0000;0.0000;0.0000;0.7965;-0.1428;-53.4100;34.7900 
1482.664;-0.4165;0.0396;1.0454;-0.1221;0.1831;0.0610;0.7965;-0.0769;-53.4045;34.7900 
1482.674;-0.4165;0.0396;1.0454;-0.1221;0.1831;0.0610;0.7965;-0.0110;-53.3990;34.8600 
1482.674;-0.4165;0.0396;1.0454;-0.1221;0.1831;0.0610;0.8020;0.0494;-53.3936;34.8600 
1482.674;-0.4165;0.0396;1.0454;-0.1221;0.1831;0.0610;0.8020;0.1154;-53.3881;34.9000 
1482.674;-0.4165;0.0396;1.0454;-0.1221;0.1831;0.0610;0.8075;0.1813;-53.3826;34.9000 
1482.674;-0.4165;0.0396;1.0454;-0.1221;0.1831;0.0610;0.8075;0.2417;-53.3771;34.8400 
1482.674;-0.4165;0.0396;1.0454;-0.1221;0.1831;0.0610;0.8075;0.3076;-53.3716;34.8400 
1482.684;-0.4165;0.0396;1.0454;-0.1221;0.1831;0.0610;0.8130;0.3735;-53.3661;34.7800 
1482.684;-0.8555;0.0757;1.0083;-0.3052;1.5259;0.6714;0.8130;0.4999;-53.3441;34.7800 
1482.694;-0.8555;0.0757;1.0083;-0.3052;1.5259;0.6714;0.8130;0.6262;-53.3221;34.7800 
1482.694;-0.8555;0.0757;1.0083;-0.3052;1.5259;0.6714;0.8130;0.7471;-53.3002;34.7800 
1482.704;-0.8555;0.0757;1.0083;-0.3052;1.5259;0.6714;0.8130;0.8734;-53.2782;34.7800 
1482.704;-0.8555;0.0757;1.0083;-0.3052;1.5259;0.6714;0.8130;0.9943;-53.2562;34.8900 
1482.724;-0.8555;0.0757;1.0083;-0.3052;1.5259;0.6714;0.8130;1.1206;-53.2343;34.8900 
1482.724;-0.8555;0.0757;1.0083;-0.3052;1.5259;0.6714;0.8130;1.2415;-53.2123;34.7800 
1482.814;-0.8555;0.0757;1.0083;-0.3052;1.5259;0.6714;0.8185;1.3623;-53.1903;34.7800 
1482.814;-1.5430;0.1553;0.9585;-0.5493;3.7231;1.7700;0.8075;1.5491;-53.1409;34.8100 
1482.834;-1.5430;0.1553;0.9585;-0.5493;3.7231;1.7700;0.7965;1.7303;-53.0914;34.8100 
1482.834;-1.5430;0.1553;0.9585;-0.5493;3.7231;1.7700;0.7910;1.9116;-53.0420;34.8200 
1482.834;-1.5430;0.1553;0.9585;-0.5493;3.7231;1.7700;0.7800;2.0874;-52.9926;34.8200 
1482.834;-1.5430;0.1553;0.9585;-0.5493;3.7231;1.7700;0.7690;2.2687;-52.9431;34.8400 
1482.834;-1.5430;0.1553;0.9585;-0.5493;3.7231;1.7700;0.7635;2.4500;-52.8937;34.8400 
1482.834;-1.5430;0.1553;0.9585;-0.5493;3.7231;1.7700;0.7526;2.6312;-52.8442;34.8200 
1482.834;-1.5430;0.1553;0.9585;-0.5493;3.7231;1.7700;0.7471;2.8070;-52.8003;34.8200 
1482.834;-2.0938;0.1919;0.9170;-0.8545;5.0049;2.8687;0.7251;3.0103;-52.7289;34.8400 
1482.834;-2.0938;0.1919;0.9170;-0.8545;5.0049;2.8687;0.7031;3.2190;-52.6575;34.8400 
1482.834;-2.0938;0.1919;0.9170;-0.8545;5.0049;2.8687;0.6812;3.4222;-52.5861;34.8400 
1482.834;-2.0938;0.1919;0.9170;-0.8545;5.0049;2.8687;0.6592;3.6255;-52.5146;34.8400 
1482.834;-2.0938;0.1919;0.9170;-0.8545;5.0049;2.8687;0.6372;3.8287;-52.4487;34.8400 
1482.834;-2.0938;0.1919;0.9170;-0.8545;5.0049;2.8687;0.6152;4.0320;-52.3828;34.8300 
1482.834;-2.0938;0.1919;0.9170;-0.8545;5.0049;2.8687;0.5933;4.2297;-52.3114;34.8300 
1482.834;-2.0938;0.1919;0.9170;-0.8545;5.0049;2.8687;0.5768;4.4330;-52.2455;34.8100 
1482.834;-2.4482;0.2515;0.8809;-1.2207;4.3945;3.2959;0.5438;4.6417;-52.1631;34.8100 
1482.834;-2.4482;0.2515;0.8809;-1.2207;4.3945;3.2959;0.5164;4.8450;-52.0807;34.7600 
1482.834;-2.4482;0.2515;0.8809;-1.2207;4.3945;3.2959;0.4889;5.0537;-52.0038;34.7600 
1482.834;-2.4482;0.2515;0.8809;-1.2207;4.3945;3.2959;0.4614;5.2570;-51.9214;34.8100 
1482.834;-2.4482;0.2515;0.8809;-1.2207;4.3945;3.2959;0.4340;5.4657;-51.8390;34.8100 
1482.834;-2.4482;0.2515;0.8809;-1.2207;4.3945;3.2959;0.4065;5.6689;-51.7621;34.8500 
1482.854;-2.4482;0.2515;0.8809;-1.2207;4.3945;3.2959;0.3790;5.8722;-51.6852;34.8500 
1482.854;-2.4482;0.2515;0.8809;-1.2207;4.3945;3.2959;0.3516;6.0754;-51.6028;34.8300 
1482.854;-2.2798;0.2173;0.8164;-1.4038;1.4038;2.8076;0.3241;6.2677;-51.5204;34.8300 
1482.854;-2.2798;0.2173;0.8164;-1.4038;1.4038;2.8076;0.2911;6.4545;-51.4435;34.8700 
1482.864;-2.2798;0.2173;0.8164;-1.4038;1.4038;2.8076;0.2637;6.6412;-51.3666;34.8700 
1482.864;-2.2798;0.2173;0.8164;-1.4038;1.4038;2.8076;0.2307;6.8280;-51.2842;34.7800 
1482.884;-2.2798;0.2173;0.8164;-1.4038;1.4038;2.8076;0.2032;7.0148;-51.2073;34.7800 
1482.884;-2.2798;0.2173;0.8164;-1.4038;1.4038;2.8076;0.1703;7.2015;-51.1249;34.7800 
1482.904;-2.2798;0.2173;0.8164;-1.4038;1.4038;2.8076;0.1428;7.3828;-51.0480;34.8400 
1482.904;-2.2798;0.2173;0.8164;-1.4038;1.4038;2.8076;0.1099;7.5696;-50.9656;34.8400 
1482.914;-1.8643;0.1699;0.7227;-1.6479;-3.7842;1.7700;0.0824;7.7234;-50.8942;34.9000 
1482.914;-1.8643;0.1699;0.7227;-1.6479;-3.7842;1.7700;0.0494;7.8827;-50.8228;34.9000 
1482.914;-1.8643;0.1699;0.7227;-1.6479;-3.7842;1.7700;0.0220;8.0365;-50.7513;34.7800 
1482.914;-1.8643;0.1699;0.7227;-1.6479;-3.7842;1.7700;0.0000;8.1903;-50.6799;34.7800 
1482.914;-1.8643;0.1699;0.7227;-1.6479;-3.7842;1.7700;-0.0275;8.3441;-50.6085;34.8000 
1482.924;-1.8643;0.1699;0.7227;-1.6479;-3.7842;1.7700;-0.0549;8.4979;-50.5426;34.8000 
1482.924;-1.8643;0.1699;0.7227;-1.6479;-3.7842;1.7700;-0.0824;8.6462;-50.4712;34.8100 
1482.924;-1.8643;0.1699;0.7227;-1.6479;-3.7842;1.7700;-0.1099;8.8000;-50.3998;34.8100 
1482.924;-1.1353;0.0889;0.5117;-1.7700;-9.5825;1.2207;-0.1373;8.9154;-50.3394;34.8100 
1483.024;-1.1353;0.0889;0.5117;-1.7700;-9.5825;1.2207;-0.1593;9.0308;-50.2789;34.8100 
1483.024;-1.1353;0.0889;0.5117;-1.7700;-9.5825;1.2207;-0.1868;9.1461;-50.2185;34.7800 
1483.044;-1.1353;0.0889;0.5117;-1.7700;-9.5825;1.2207;-0.2142;9.2615;-50.1581;34.7800 
1483.044;-1.1353;0.0889;0.5117;-1.7700;-9.5825;1.2207;-0.2417;9.3768;-50.0922;34.7800 
1483.044;-1.1353;0.0889;0.5117;-1.7700;-9.5825;1.2207;-0.2637;9.4922;-50.0262;34.8300 
1483.044;-1.1353;0.0889;0.5117;-1.7700;-9.5825;1.2207;-0.2911;9.6021;-49.9603;34.8300 
1483.044;-1.1353;0.0889;0.5117;-1.7700;-9.5825;1.2207;-0.3186;9.7174;-49.8944;34.8400 
1483.044;-0.4214;0.0098;0.2944;-1.7700;-14.7705;2.1362;-0.3406;9.7723;-49.8505;34.8400 
1483.044;-0.4214;0.0098;0.2944;-1.7700;-14.7705;2.1362;-0.3571;9.8328;-49.8065;34.8400 
1483.044;-0.4214;0.0098;0.2944;-1.7700;-14.7705;2.1362;-0.3735;9.8932;-49.7571;34.8400 
1483.044;-0.4214;0.0098;0.2944;-1.7700;-14.7705;2.1362;-0.3955;9.9481;-49.7131;34.8400 
1483.044;-0.4214;0.0098;0.2944;-1.7700;-14.7705;2.1362;-0.4120;10.0085;-49.6637;34.8400 
1483.044;-0.4214;0.0098;0.2944;-1.7700;-14.7705;2.1362;-0.4285;10.0635;-49.6198;34.8700 
1483.044;-0.4214;0.0098;0.2944;-1.7700;-14.7705;2.1362;-0.4449;10.1239;-49.5703;34.8700 
1483.044;-0.4214;0.0098;0.2944;-1.7700;-14.7705;2.1362;-0.4669;10.1788;-49.5264;34.7800 
1483.044;0.1094;-0.0488;0.1333;-1.8311;-18.9209;4.7607;-0.5273;9.9481;-49.5209;34.7800 
1483.044;0.1094;-0.0488;0.1333;-1.8311;-18.9209;4.7607;-0.5878;9.7174;-49.5154;34.7700 
1483.044;0.1094;-0.0488;0.1333;-1.8311;-18.9209;4.7607;-0.6482;9.4867;-49.5044;34.7700 
1483.044;0.1094;-0.0488;0.1333;-1.8311;-18.9209;4.7607;-0.7086;9.2560;-49.4989;34.8300 
1483.044;0.1094;-0.0488;0.1333;-1.8311;-18.9209;4.7607;-0.7690;9.0253;-49.4934;34.8300 
1483.044;0.1094;-0.0488;0.1333;-1.8311;-18.9209;4.7607;-0.8240;8.7946;-49.4879;34.8300 
1483.044;0.1094;-0.0488;0.1333;-1.8311;-18.9209;4.7607;-0.8844;8.5693;-49.4769;34.8200 
1483.044;0.1094;-0.0488;0.1333;-1.8311;-18.9209;4.7607;-0.9448;8.3386;-49.4714;34.8200 
1483.044;0.4111;-0.0845;0.0474;-1.9531;-21.1792;8.9111;-0.9338;7.9871;-49.3616;34.8300 
1483.054;0.4111;-0.0845;0.0474;-1.9531;-21.1792;8.9111;-0.9229;7.6410;-49.2517;34.8300 
1483.064;0.4111;-0.0845;0.0474;-1.9531;-21.1792;8.9111;-0.9119;7.2894;-49.1364;34.8300 
1483.064;0.4111;-0.0845;0.0474;-1.9531;-21.1792;8.9111;-0.8954;6.9379;-49.0265;34.8300 
1483.064;0.4111;-0.0845;0.0474;-1.9531;-21.1792;8.9111;-0.8844;6.5918;-48.9111;34.7900 
1483.074;0.4111;-0.0845;0.0474;-1.9531;-21.1792;8.9111;-0.8734;6.2457;-48.8013;34.7900 
1483.084;0.4111;-0.0845;0.0474;-1.9531;-21.1792;8.9111;-0.8624;5.8997;-48.6859;34.8000 
1483.084;0.4111;-0.0845;0.0474;-1.9531;-21.1792;8.9111;-0.8459;5.5536;-48.5706;34.8000 
1483.104;0.5200;-0.0991;0.0303;-2.4414;-20.8130;14.4043;-0.8185;5.2075;-48.4167;34.8700 
1483.104;0.5200;-0.0991;0.0303;-2.4414;-20.8130;14.4043;-0.7855;4.8560;-48.2574;34.8700 
1483.104;0.5200;-0.0991;0.0303;-2.4414;-20.8130;14.4043;-0.7526;4.5099;-48.1036;34.8400 
1483.104;0.5200;-0.0991;0.0303;-2.4414;-20.8130;14.4043;-0.7251;4.1638;-47.9498;34.8400 
1483.114;0.5200;-0.0991;0.0303;-2.4414;-20.8130;14.4043;-0.6976;3.8232;-47.7960;34.8400 
1483.114;0.5200;-0.0991;0.0303;-2.4414;-20.8130;14.4043;-0.6702;3.4772;-47.6422;34.8400 
1483.134;0.5200;-0.0991;0.0303;-2.4414;-20.8130;14.4043;-0.6482;3.1311;-47.4884;34.8400 
1483.134;0.5200;-0.0991;0.0303;-2.4414;-20.8130;14.4043;-0.6207;2.7905;-47.3346;34.7900 
1483.224;0.5029;-0.1060;0.0635;-3.5400;-18.0664;20.9961;-0.6262;2.4664;-47.1698;34.7900 
1483.224;0.5029;-0.1060;0.0635;-3.5400;-18.0664;20.9961;-0.6262;2.1423;-46.9995;34.8200 
1483.224;0.5029;-0.1060;0.0635;-3.5400;-18.0664;20.9961;-0.6317;1.8237;-46.8292;34.8200 
1483.224;0.5029;-0.1060;0.0635;-3.5400;-18.0664;20.9961;-0.6372;1.5051;-46.6589;34.8400 
1483.244;0.5029;-0.1060;0.0635;-3.5400;-18.0664;20.9961;-0.6427;1.1810;-46.4941;34.8400 
1483.244;0.5029;-0.1060;0.0635;-3.5400;-18.0664;20.9961;-0.6482;0.8624;-46.3239;34.8300 
1483.244;0.5029;-0.1060;0.0635;-3.5400;-18.0664;20.9961;-0.6537;0.5438;-46.1536;34.8300 
1483.244;0.5029;-0.1060;0.0635;-3.5400;-18.0664;20.9961;-0.6592;0.2307;-45.9833;34.7800 
1483.244;0.6084;-0.0645;0.5703;-5.1270;-13.1226;28.6255;-0.6976;0.0275;-45.8350;34.7800 
1483.244;0.6084;-0.0645;0.5703;-5.1270;-13.1226;28.6255;-0.7306;-0.1703;-45.6812;34.8000 
1483.244;0.6084;-0.0645;0.5703;-5.1270;-13.1226;28.6255;-0.7690;-0.3680;-45.5273;34.8000 
1483.244;0.6084;-0.0645;0.5703;-5.1270;-13.1226;28.6255;-0.8020;-0.5658;-45.3735;34.8600 
1483.244;0.6084;-0.0645;0.5703;-5.1270;-13.1226;28.6255;-0.8405;-0.7635;-45.2252;34.8600 
1483.244;0.6084;-0.0645;0.5703;-5.1270;-13.1226;28.6255;-0.8734;-0.9613;-45.0714;34.8000 
1483.244;0.6084;-0.0645;0.5703;-5.1270;-13.1226;28.6255;-0.9119;-1.1591;-44.9176;34.8000 
1483.244;0.6084;-0.0645;0.5703;-5.1270;-13.1226;28.6255;-0.9503;-1.3568;-44.7638;34.8000 
1483.244;0.6392;-0.1094;0.7788;-6.5308;-7.0190;36.6821;-0.9998;-1.4996;-44.5770;34.8300 
1483.244;0.6392;-0.1094;0.7788;-6.5308;-7.0190;36.6821;-1.0547;-1.6425;-44.3848;34.8300 
1483.244;0.6392;-0.1094;0.7788;-6.5308;-7.0190;36.6821;-1.1096;-1.7853;-44.1980;34.8400 
1483.244;0.6392;-0.1094;0.7788;-6.5308;-7.0190;36.6821;-1.1591;-1.9281;-44.0057;34.8400 
1483.244;0.6392;-0.1094;0.7788;-6.5308;-7.0190;36.6821;-1.2140;-2.0709;-43.8190;34.8500 
1483.244;0.6392;-0.1094;0.7788;-6.5308;-7.0190;36.6821;-1.2689;-2.2083;-43.6322;34.8500 
1483.254;0.6392;-0.1094;0.7788;-6.5308;-7.0190;36.6821;-1.3239;-2.3511;-43.4399;34.8500 
1483.264;0.6392;-0.1094;0.7788;-6.5308;-7.0190;36.6821;-1.3788;-2.4884;-43.2477;34.8500 
1483.264;0.7583;-0.1450;1.2603;-7.1411;-1.2207;43.8843;-1.4392;-2.5708;-43.0280;34.8700 
1483.264;0.7583;-0.1450;1.2603;-7.1411;-1.2207;43.8843;-1.4996;-2.6587;-42.8082;34.8700 
1483.264;0.7583;-0.1450;1.2603;-7.1411;-1.2207;43.8843;-1.5546;-2.7411;-42.5885;34.8300 
1483.274;0.7583;-0.1450;1.2603;-7.1411;-1.2207;43.8843;-1.6150;-2.8235;-42.3688;34.8300 
1483.274;0.7583;-0.1450;1.2603;-7.1411;-1.2207;43.8843;-1.6754;-2.9114;-42.1490;34.8700 
1483.274;0.7583;-0.1450;1.2603;-7.1411;-1.2207;43.8843;-1.7358;-2.9938;-41.9293;34.8700 
1483.274;0.7583;-0.1450;1.2603;-7.1411;-1.2207;43.8843;-1.7963;-3.0762;-41.7041;34.8700 
1483.284;0.7583;-0.1450;1.2603;-7.1411;-1.2207;43.8843;-1.8567;-3.1586;-41.4844;34.8400 
1483.284;0.7642;-0.1685;1.4087;-6.0425;3.6011;48.7061;-1.9116;-3.2025;-41.2427;34.8400 
1483.294;0.7642;-0.1685;1.4087;-6.0425;3.6011;48.7061;-1.9720;-3.2520;-41.0010;34.7900 
1483.294;0.7642;-0.1685;1.4087;-6.0425;3.6011;48.7061;-2.0270;-3.3014;-40.7593;34.7900 
1483.304;0.7642;-0.1685;1.4087;-6.0425;3.6011;48.7061;-2.0819;-3.3508;-40.5176;34.7200 
1483.304;0.7642;-0.1685;1.4087;-6.0425;3.6011;48.7061;-2.1423;-3.3948;-40.2759;34.7200 
1483.314;0.7642;-0.1685;1.4087;-6.0425;3.6011;48.7061;-2.1973;-3.4442;-40.0287;34.8100 
1483.314;0.7642;-0.1685;1.4087;-6.0425;3.6011;48.7061;-2.2577;-3.4882;-39.7870;34.8100 
1483.324;0.7642;-0.1685;1.4087;-6.0425;3.6011;48.7061;-2.3126;-3.5376;-39.5453;34.8300 
1483.324;0.6694;-0.2251;1.3442;-2.7466;6.5918;50.3540;-2.3621;-3.5596;-39.2926;34.8300 
1483.334;0.6694;-0.2251;1.3442;-2.7466;6.5918;50.3540;-2.4115;-3.5870;-39.0454;34.8500 
1483.334;0.6694;-0.2251;1.3442;-2.7466;6.5918;50.3540;-2.4609;-3.6090;-38.7927;34.8500 
1483.424;0.6694;-0.2251;1.3442;-2.7466;6.5918;50.3540;-2.5104;-3.6310;-38.5455;34.8300 
1483.424;0.6694;-0.2251;1.3442;-2.7466;6.5918;50.3540;-2.5598;-3.6584;-38.2928;34.8300 
1483.424;0.6694;-0.2251;1.3442;-2.7466;6.5918;50.3540;-2.6093;-3.6804;-38.0457;34.8400 
1483.424;0.6694;-0.2251;1.3442;-2.7466;6.5918;50.3540;-2.6587;-3.7024;-37.7930;34.8400 
1483.434;0.6694;-0.2251;1.3442;-2.7466;6.5918;50.3540;-2.7026;-3.7244;-37.5403;34.8400 
1483.434;0.5806;-0.2100;1.2544;0.8545;7.3242;49.3774;-2.7356;-3.7408;-37.2986;34.8100 
1483.434;0.5806;-0.2100;1.2544;0.8545;7.3242;49.3774;-2.7686;-3.7518;-37.0514;34.8100 
1483.434;0.5806;-0.2100;1.2544;0.8545;7.3242;49.3774;-2.7960;-3.7683;-36.8097;34.8400 
1483.434;0.5806;-0.2100;1.2544;0.8545;7.3242;49.3774;-2.8290;-3.7793;-36.5625;34.8400 
1483.434;0.5806;-0.2100;1.2544;0.8545;7.3242;49.3774;-2.8564;-3.7958;-36.3208;34.7900 
1483.434;0.5806;-0.2100;1.2544;0.8545;7.3242;49.3774;-2.8894;-3.8068;-36.0791;34.7900 
1483.434;0.5806;-0.2100;1.2544;0.8545;7.3242;49.3774;-2.9224;-3.8177;-35.8374;34.8600 
1483.434;0.5806;-0.2100;1.2544;0.8545;7.3242;49.3774;-2.9553;-3.8342;-35.5957;34.8600 
1483.434;0.5400;-0.2036;1.1406;4.0894;6.3477;46.9360;-2.9663;-3.8507;-35.3705;34.8000 
1483.434;0.5400;-0.2036;1.1406;4.0894;6.3477;46.9360;-2.9828;-3.8727;-35.1398;34.8000 
1483.434;0.5400;-0.2036;1.1406;4.0894;6.3477;46.9360;-2.9993;-3.8892;-34.9146;34.8300 
1483.434;0.5400;-0.2036;1.1406;4.0894;6.3477;46.9360;-3.0157;-3.9056;-34.6838;34.8300 
1483.434;0.5400;-0.2036;1.1406;4.0894;6.3477;46.9360;-3.0322;-3.9276;-34.4586;34.8100 
1483.434;0.5400;-0.2036;1.1406;4.0894;6.3477;46.9360;-3.0487;-3.9441;-34.2279;34.8100 
1483.444;0.5400;-0.2036;1.1406;4.0894;6.3477;46.9360;-3.0652;-3.9661;-34.0027;34.7900 
1483.444;0.5400;-0.2036;1.1406;4.0894;6.3477;46.9360;-3.0817;-3.9825;-33.7775;34.7900 
1483.454;0.5356;-0.2075;1.0415;5.9204;4.0283;43.9453;-3.0927;-4.0155;-33.5632;34.7900 
1483.454;0.5356;-0.2075;1.0415;5.9204;4.0283;43.9453;-3.1036;-4.0540;-33.3490;34.8100 
1483.464;0.5356;-0.2075;1.0415;5.9204;4.0283;43.9453;-3.1091;-4.0869;-33.1348;34.8100 
1483.464;0.5356;-0.2075;1.0415;5.9204;4.0283;43.9453;-3.1201;-4.1254;-32.9205;34.8200 
1483.474;0.5356;-0.2075;1.0415;5.9204;4.0283;43.9453;-3.1311;-4.1583;-32.7118;34.8200 
1483.474;0.5356;-0.2075;1.0415;5.9204;4.0283;43.9453;-3.1421;-4.1968;-32.4976;34.7800 
1483.494;0.5356;-0.2075;1.0415;5.9204;4.0283;43.9453;-3.1531;-4.2297;-32.2888;34.7800 
1483.494;0.5356;-0.2075;1.0415;5.9204;4.0283;43.9453;-3.1641;-4.2627;-32.0746;34.8200 
1483.504;0.5542;-0.2139;0.9761;5.7373;1.2207;40.8325;-3.1750;-4.3231;-31.8823;34.8200 
1483.504;0.5542;-0.2139;0.9761;5.7373;1.2207;40.8325;-3.1915;-4.3781;-31.6846;34.8100 
1483.514;0.5542;-0.2139;0.9761;5.7373;1.2207;40.8325;-3.2025;-4.4330;-31.4813;34.8100 
1483.514;0.5542;-0.2139;0.9761;5.7373;1.2207;40.8325;-3.2135;-4.4879;-31.2836;34.8200 
1483.534;0.5542;-0.2139;0.9761;5.7373;1.2207;40.8325;-3.2300;-4.5428;-31.0858;34.8200 
1483.534;0.5542;-0.2139;0.9761;5.7373;1.2207;40.8325;-3.2410;-4.5978;-30.8881;34.8000 
1483.534;0.5542;-0.2139;0.9761;5.7373;1.2207;40.8325;-3.2574;-4.6527;-30.6903;34.8000 
1483.534;0.5542;-0.2139;0.9761;5.7373;1.2207;40.8325;-3.2684;-4.7076;-30.4871;34.8300 
1483.534;0.5669;-0.2178;0.9438;4.5166;-0.9155;37.4146;-3.2904;-4.7791;-30.3058;34.8300 
1483.534;0.5669;-0.2178;0.9438;4.5166;-0.9155;37.4146;-3.3124;-4.8505;-30.1245;34.8300 
1483.634;0.5669;-0.2178;0.9438;4.5166;-0.9155;37.4146;-3.3344;-4.9164;-29.9432;34.8400 
1483.654;0.5669;-0.2178;0.9438;4.5166;-0.9155;37.4146;-3.3508;-4.9878;-29.7565;34.8400 
1483.654;0.5669;-0.2178;0.9438;4.5166;-0.9155;37.4146;-3.3728;-5.0537;-29.5752;34.7800 
1483.654;0.5669;-0.2178;0.9438;4.5166;-0.9155;37.4146;-3.3948;-5.1251;-29.3939;34.7800 
1483.654;0.5669;-0.2178;0.9438;4.5166;-0.9155;37.4146;-3.4167;-5.1910;-29.2126;34.8200 
1483.654;0.5669;-0.2178;0.9438;4.5166;-0.9155;37.4146;-3.4387;-5.2625;-29.0314;34.8200 
1483.654;0.5972;-0.2314;0.9409;2.9297;-2.0142;33.2031;-3.4662;-5.3394;-28.8666;34.8400 
1483.654;0.5972;-0.2314;0.9409;2.9297;-2.0142;33.2031;-3.4991;-5.4163;-28.7073;34.8400 
1483.654;0.5972;-0.2314;0.9409;2.9297;-2.0142;33.2031;-3.5266;-5.4932;-28.5425;34.8200 
1483.654;0.5972;-0.2314;0.9409;2.9297;-2.0142;33.2031;-3.5596;-5.5701;-28.3832;34.8200 
1483.654;0.5972;-0.2314;0.9409;2.9297;-2.0142;33.2031;-3.5925;-5.6470;-28.2239;34.7800 
1483.654;0.5972;-0.2314;0.9409;2.9297;-2.0142;33.2031;-3.6200;-5.7239;-28.0646;34.7800 
1483.654;0.5972;-0.2314;0.9409;2.9297;-2.0142;33.2031;-3.6530;-5.8008;-27.9053;34.8200 
1483.654;0.5972;-0.2314;0.9409;2.9297;-2.0142;33.2031;-3.6859;-5.8777;-27.7460;34.8200 
1483.654;0.6333;-0.2485;0.9526;1.4038;-2.0752;27.7100;-3.7244;-5.9601;-27.6141;34.8200 
1483.654;0.6333;-0.2485;0.9526;1.4038;-2.0752;27.7100;-3.7628;-6.0370;-27.4823;34.8200 
1483.654;0.6333;-0.2485;0.9526;1.4038;-2.0752;27.7100;-3.8013;-6.1194;-27.3505;34.8200 
1483.654;0.6333;-0.2485;0.9526;1.4038;-2.0752;27.7100;-3.8397;-6.2018;-27.2186;34.8200 
1483.654;0.6333;-0.2485;0.9526;1.4038;-2.0752;27.7100;-3.8782;-6.2787;-27.0868;34.8200 
1483.654;0.6333;-0.2485;0.9526;1.4038;-2.0752;27.7100;-3.9166;-6.3556;-26.9550;34.8800 
1483.654;0.6333;-0.2485;0.9526;1.4038;-2.0752;27.7100;-3.9551;-6.4380;-26.8231;34.8800 
1483.654;0.6333;-0.2485;0.9526;1.4038;-2.0752;27.7100;-3.9935;-6.5149;-26.6913;34.7200 
1483.654;0.6860;-0.2676;0.9707;0.2441;-1.4038;20.6909;-4.0375;-6.5973;-26.5979;34.7200 
1483.674;0.6860;-0.2676;0.9707;0.2441;-1.4038;20.6909;-4.0814;-6.6797;-26.4990;34.7800 
1483.674;0.6860;-0.2676;0.9707;0.2441;-1.4038;20.6909;-4.1254;-6.7621;-26.4056;34.7800 
1483.674;0.6860;-0.2676;0.9707;0.2441;-1.4038;20.6909;-4.1638;-6.8390;-26.3068;34.8100 
1483.674;0.6860;-0.2676;0.9707;0.2441;-1.4038;20.6909;-4.2078;-6.9214;-26.2134;34.8100 
1483.694;0.6860;-0.2676;0.9707;0.2441;-1.4038;20.6909;-4.2517;-7.0038;-26.1200;34.8100 
1483.694;0.6860;-0.2676;0.9707;0.2441;-1.4038;20.6909;-4.2957;-7.0807;-26.0211;34.8100 
1483.714;0.6860;-0.2676;0.9707;0.2441;-1.4038;20.6909;-4.3396;-7.1631;-25.9277;34.8400 
1483.714;0.6958;-0.2681;0.9858;-0.3662;-0.5493;12.3291;-4.3781;-7.2400;-25.8728;34.8400 
1483.714;0.6958;-0.2681;0.9858;-0.3662;-0.5493;12.3291;-4.4220;-7.3169;-25.8234;34.8400 
1483.744;0.6958;-0.2681;0.9858;-0.3662;-0.5493;12.3291;-4.4604;-7.3938;-25.7739;34.8400 
1483.744;0.6958;-0.2681;0.9858;-0.3662;-0.5493;12.3291;-4.5044;-7.4707;-25.7190;34.8400 
1483.844;0.6958;-0.2681;0.9858;-0.3662;-0.5493;12.3291;-4.5428;-7.5476;-25.6696;34.8300 
1483.844;0.6958;-0.2681;0.9858;-0.3662;-0.5493;12.3291;-4.5868;-7.6245;-25.6146;34.8300 
1483.854;0.6958;-0.2681;0.9858;-0.3662;-0.5493;12.3291;-4.6252;-7.7014;-25.5652;34.8000 
1483.854;0.6958;-0.2681;0.9858;-0.3662;-0.5493;12.3291;-4.6637;-7.7783;-25.5157;34.8000 
1483.854;0.6611;-0.2466;0.9966;-0.5493;0.1831;3.6011;-4.7021;-7.8497;-25.5103;34.8000 
1483.854;0.6611;-0.2466;0.9966;-0.5493;0.1831;3.6011;-4.7351;-7.9211;-25.5103;34.8000 
1483.854;0.6611;-0.2466;0.9966;-0.5493;0.1831;3.6011;-4.7681;-7.9926;-25.5048;34.8500 
1483.854;0.6611;-0.2466;0.9966;-0.5493;0.1831;3.6011;-4.8010;-8.0585;-25.5048;34.8500 
1483.864;0.6611;-0.2466;0.9966;-0.5493;0.1831;3.6011;-4.8340;-8.1299;-25.4993;34.8200 
1483.864;0.6611;-0.2466;0.9966;-0.5493;0.1831;3.6011;-4.8669;-8.2013;-25.4993;34.8200 
1483.884;0.6611;-0.2466;0.9966;-0.5493;0.1831;3.6011;-4.8999;-8.2727;-25.4938;34.7700 
1483.884;0.6611;-0.2466;0.9966;-0.5493;0.1831;3.6011;-4.9329;-8.3386;-25.4938;34.7700 
1483.894;0.6006;-0.2134;1.0010;-0.4883;0.6104;-3.7842;-4.9548;-8.4045;-25.5267;34.8100 
1483.894;0.6006;-0.2134;1.0010;-0.4883;0.6104;-3.7842;-4.9768;-8.4650;-25.5652;34.8100 
1483.904;0.6006;-0.2134;1.0010;-0.4883;0.6104;-3.7842;-4.9988;-8.5309;-25.6036;34.8100 
1483.904;0.6006;-0.2134;1.0010;-0.4883;0.6104;-3.7842;-5.0208;-8.5913;-25.6366;34.7900 
1483.924;0.6006;-0.2134;1.0010;-0.4883;0.6104;-3.7842;-5.0427;-8.6572;-25.6750;34.7900 
1483.924;0.6006;-0.2134;1.0010;-0.4883;0.6104;-3.7842;-5.0647;-8.7177;-25.7080;34.8000 
1483.934;0.6006;-0.2134;1.0010;-0.4883;0.6104;-3.7842;-5.0867;-8.7781;-25.7465;34.8000 
1483.934;0.6006;-0.2134;1.0010;-0.4883;0.6104;-3.7842;-5.1086;-8.8440;-25.7849;34.7700 
1484.044;0.5249;-0.1709;1.0020;-0.1831;0.7324;-8.7280;-5.1196;-8.8989;-25.8453;34.7700 
1484.044;0.5249;-0.1709;1.0020;-0.1831;0.7324;-8.7280;-5.1306;-8.9539;-25.9113;34.8000 
1484.064;0.5249;-0.1709;1.0020;-0.1831;0.7324;-8.7280;-5.1416;-9.0033;-25.9717;34.8000 
1484.064;0.5249;-0.1709;1.0020;-0.1831;0.7324;-8.7280;-5.1471;-9.0582;-26.0376;34.7800 
1484.064;0.5249;-0.1709;1.0020;-0.1831;0.7324;-8.7280;-5.1581;-9.1132;-26.0980;34.7800 
1484.064;0.5249;-0.1709;1.0020;-0.1831;0.7324;-8.7280;-5.1691;-9.1681;-26.1584;34.8100 
1484.104;0.5249;-0.1709;1.0020;-0.1831;0.7324;-8.7280;-5.1801;-9.2230;-26.2189;34.8100 
1484.133;0.5249;-0.1709;1.0020;-0.1831;0.7324;-8.7280;-5.1855;-9.2780;-26.2848;34.7700 
1484.133;0.4189;-0.1240;1.0000;0.0610;0.6104;-10.7422;-5.1855;-9.3164;-26.3562;34.7700 
1484.153;0.4189;-0.1240;1.0000;0.0610;0.6104;-10.7422;-5.1855;-9.3604;-26.4276;34.8700 
1484.153;0.4189;-0.1240;1.0000;0.0610;0.6104;-10.7422;-5.1801;-9.3988;-26.4990;34.8700 
1484.253;0.4189;-0.1240;1.0000;0.0610;0.6104;-10.7422;-5.1801;-9.4373;-26.5759;34.8700 
1484.253;0.4189;-0.1240;1.0000;0.0610;0.6104;-10.7422;-5.1801;-9.4812;-26.6473;34.8300 
1484.263;0.4189;-0.1240;1.0000;0.0610;0.6104;-10.7422;-5.1746;-9.5197;-26.7188;34.8300 
1484.263;0.4189;-0.1240;1.0000;0.0610;0.6104;-10.7422;-5.1746;-9.5636;-26.7902;34.8300 
1484.283;0.4189;-0.1240;1.0000;0.0610;0.6104;-10.7422;-5.1746;-9.6021;-26.8616;34.8300 
1484.283;0.3110;-0.0781;0.9980;0.2441;0.4272;-10.0708;-5.1636;-9.6295;-26.9330;34.7900 
1484.313;0.3110;-0.0781;0.9980;0.2441;0.4272;-10.0708;-5.1526;-9.6515;-27.0044;34.7900 
1484.313;0.3110;-0.0781;0.9980;0.2441;0.4272;-10.0708;-5.1416;-9.6790;-27.0758;34.8000 
1484.323;0.3110;-0.0781;0.9980;0.2441;0.4272;-10.0708;-5.1306;-9.7009;-27.1472;34.8000 
1484.323;0.3110;-0.0781;0.9980;0.2441;0.4272;-10.0708;-5.1196;-9.7284;-27.2186;34.7800 
1484.333;0.3110;-0.0781;0.9980;0.2441;0.4272;-10.0708;-5.1086;-9.7559;-27.2900;34.7800 
1484.333;0.3110;-0.0781;0.9980;0.2441;0.4272;-10.0708;-5.1031;-9.7778;-27.3615;34.8100 
1484.353;0.3110;-0.0781;0.9980;0.2441;0.4272;-10.0708;-5.0922;-9.8053;-27.4329;34.8100 
1484.353;0.1934;-0.0356;0.9961;0.2441;0.1831;-7.6904;-5.0757;-9.8108;-27.4933;34.8400 
1484.453;0.1934;-0.0356;0.9961;0.2441;0.1831;-7.6904;-5.0592;-9.8163;-27.5537;34.8400 
1484.453;0.1934;-0.0356;0.9961;0.2441;0.1831;-7.6904;-5.0427;-9.8218;-27.6141;34.8400 
1484.473;0.1934;-0.0356;0.9961;0.2441;0.1831;-7.6904;-5.0208;-9.8273;-27.6691;34.8400 
1484.473;0.1934;-0.0356;0.9961;0.2441;0.1831;-7.6904;-5.0043;-9.8383;-27.7295;34.8400 
1484.473;0.1934;-0.0356;0.9961;0.2441;0.1831;-7.6904;-4.9878;-9.8438;-27.7899;34.7700 
1484.473;0.1934;-0.0356;0.9961;0.2441;0.1831;-7.6904;-4.9713;-9.8492;-27.8448;34.7700 
1484.473;0.1934;-0.0356;0.9961;0.2441;0.1831;-7.6904;-4.9548;-9.8547;-27.9053;34.7600 
1484.473;0.0991;-0.0054;0.9946;0.2441;0.0000;-4.6387;-4.9384;-9.8438;-27.9492;34.7600 
1484.493;0.0991;-0.0054;0.9946;0.2441;0.0000;-4.6387;-4.9164;-9.8328;-27.9932;34.8400 
1484.493;0.0991;-0.0054;0.9946;0.2441;0.0000;-4.6387;-4.8999;-9.8273;-28.0371;34.8400 
1484.503;0.0991;-0.0054;0.9946;0.2441;0.0000;-4.6387;-4.8779;-9.8163;-28.0811;34.8400 
1484.503;0.0991;-0.0054;0.9946;0.2441;0.0000;-4.6387;-4.8560;-9.8053;-28.1250;34.8400 
1484.503;0.0991;-0.0054;0.9946;0.2441;0.0000;-4.6387;-4.8395;-9.7943;-28.1689;34.8300 
1484.503;0.0991;-0.0054;0.9946;0.2441;0.0000;-4.6387;-4.8175;-9.7888;-28.2129;34.8300 
1484.523;0.0991;-0.0054;0.9946;0.2441;0.0000;-4.6387;-4.8010;-9.7778;-28.2568;34.8500 
1484.523;0.0415;0.0117;0.9941;0.1221;0.0000;-1.8311;-4.7791;-9.7559;-28.2898;34.8500 
1484.523;0.0415;0.0117;0.9941;0.1221;0.0000;-1.8311;-4.7571;-9.7394;-28.3173;34.7800 
1484.523;0.0415;0.0117;0.9941;0.1221;0.0000;-1.8311;-4.7406;-9.7174;-28.3447;34.7800 
1484.653;0.0415;0.0117;0.9941;0.1221;0.0000;-1.8311;-4.7186;-9.6954;-28.3777;34.7800 
1484.653;0.0415;0.0117;0.9941;0.1221;0.0000;-1.8311;-4.7021;-9.6735;-28.4052;34.8800 
1484.653;0.0415;0.0117;0.9941;0.1221;0.0000;-1.8311;-4.6802;-9.6570;-28.4326;34.8800 
1484.663;0.0415;0.0117;0.9941;0.1221;0.0000;-1.8311;-4.6582;-9.6350;-28.4656;34.8100 
1484.663;0.0415;0.0117;0.9941;0.1221;0.0000;-1.8311;-4.6417;-9.6185;-28.4930;34.8100 
1484.663;0.0176;0.0166;0.9941;0.0000;-0.0610;0.0610;-4.6252;-9.5911;-28.5150;34.8200 
1484.663;0.0176;0.0166;0.9941;0.0000;-0.0610;0.0610;-4.6033;-9.5691;-28.5315;34.8200 
1484.663;0.0176;0.0166;0.9941;0.0000;-0.0610;0.0610;-4.5868;-9.5416;-28.5480;34.7800 
1484.663;0.0176;0.0166;0.9941;0.0000;-0.0610;0.0610;-4.5703;-9.5197;-28.5699;34.7800 
1484.663;0.0176;0.0166;0.9941;0.0000;-0.0610;0.0610;-4.5483;-9.4922;-28.5864;34.8000 
1484.663;0.0176;0.0166;0.9941;0.0000;-0.0610;0.0610;-4.5319;-9.4702;-28.6029;34.8000 
1484.683;0.0176;0.0166;0.9941;0.0000;-0.0610;0.0610;-4.5154;-9.4427;-28.6194;34.7800 
1484.683;0.0176;0.0166;0.9941;0.0000;-0.0610;0.0610;-4.4989;-9.4208;-28.6359;34.7800 
1484.683;0.0176;0.0142;0.9941;0.0000;-0.0610;1.0376;-4.4824;-9.3988;-28.6523;34.8000 
1484.683;0.0176;0.0142;0.9941;0.0000;-0.0610;1.0376;-4.4659;-9.3713;-28.6633;34.8000 
1484.713;0.0176;0.0142;0.9941;0.0000;-0.0610;1.0376;-4.4495;-9.3494;-28.6743;34.8600 
1484.713;0.0176;0.0142;0.9941;0.0000;-0.0610;1.0376;-4.4330;-9.3219;-28.6908;34.8600 
1484.713;0.0176;0.0142;0.9941;0.0000;-0.0610;1.0376;-4.4165;-9.2999;-28.7018;34.8600 
1484.713;0.0176;0.0142;0.9941;0.0000;-0.0610;1.0376;-4.4000;-9.2725;-28.7183;34.8200 
1484.733;0.0176;0.0142;0.9941;0.0000;-0.0610;1.0376;-4.3835;-9.2505;-28.7292;34.8200 
1484.733;0.0176;0.0142;0.9941;0.0000;-0.0610;1.0376;-4.3671;-9.2285;-28.7402;34.8100 
1484.733;0.0303;0.0088;0.9946;-0.0610;-0.0610;1.3428;-4.3506;-9.2065;-28.7512;34.8100 
1484.733;0.0303;0.0088;0.9946;-0.0610;-0.0610;1.3428;-4.3396;-9.1846;-28.7622;34.8100 
1484.763;0.0303;0.0088;0.9946;-0.0610;-0.0610;1.3428;-4.3231;-9.1626;-28.7732;34.8100 
1484.763;0.0303;0.0088;0.9946;-0.0610;-0.0610;1.3428;-4.3121;-9.1406;-28.7842;34.7700 
1484.763;0.0303;0.0088;0.9946;-0.0610;-0.0610;1.3428;-4.2957;-9.1187;-28.7897;34.7700 
1484.873;0.0303;0.0088;0.9946;-0.0610;-0.0610;1.3428;-4.2792;-9.0967;-28.8007;34.8200 
1484.873;0.0303;0.0088;0.9946;-0.0610;-0.0610;1.3428;-4.2682;-9.0747;-28.8116;34.8200 
1484.873;0.0303;0.0088;0.9946;-0.0610;-0.0610;1.3428;-4.2517;-9.0527;-28.8281;34.8200 
1484.873;0.0469;0.0029;0.9951;-0.0610;0.0000;1.1597;-4.2407;-9.0363;-28.8391;34.8200 
1484.883;0.0469;0.0029;0.9951;-0.0610;0.0000;1.1597;-4.2242;-9.0143;-28.8501;34.8400 
1484.883;0.0469;0.0029;0.9951;-0.0610;0.0000;1.1597;-4.2133;-8.9978;-28.8611;34.8400 
1484.883;0.0469;0.0029;0.9951;-0.0610;0.0000;1.1597;-4.2023;-8.9813;-28.8721;34.8600 
1484.883;0.0469;0.0029;0.9951;-0.0610;0.0000;1.1597;-4.1858;-8.9594;-28.8831;34.8600 
1484.903;0.0469;0.0029;0.9951;-0.0610;0.0000;1.1597;-4.1748;-8.9429;-28.8995;34.8600 
1484.903;0.0469;0.0029;0.9951;-0.0610;0.0000;1.1597;-4.1638;-8.9209;-28.9105;34.8300 
1484.903;0.0469;0.0029;0.9951;-0.0610;0.0000;1.1597;-4.1473;-8.9044;-28.9215;34.8300 
1484.903;0.0610;-0.0015;0.9951;-0.0610;0.0000;0.7324;-4.1364;-8.8879;-28.9380;34.8700 
1484.923;0.0610;-0.0015;0.9951;-0.0610;0.0000;0.7324;-4.1254;-8.8715;-28.9490;34.8700 
1484.923;0.0610;-0.0015;0.9951;-0.0610;0.0000;0.7324;-4.1144;-8.8550;-28.9655;34.7800 
1484.923;0.0610;-0.0015;0.9951;-0.0610;0.0000;0.7324;-4.0979;-8.8440;-28.9819;34.7800 
1484.923;0.0610;-0.0015;0.9951;-0.0610;0.0000;0.7324;-4.0869;-8.8275;-28.9929;34.8000 
1484.953;0.0610;-0.0015;0.9951;-0.0610;0.0000;0.7324;-4.0759;-8.8110;-29.0094;34.8000 
1484.953;0.0610;-0.0015;0.9951;-0.0610;0.0000;0.7324;-4.0649;-8.7946;-29.0259;34.8600 
1484.953;0.0610;-0.0015;0.9951;-0.0610;0.0000;0.7324;-4.0540;-8.7781;-29.0369;34.8600 
1484.953;0.0708;-0.0044;0.9951;-0.0610;0.0000;0.3662;-4.0430;-8.7671;-29.0533;34.7600 
1484.973;0.0708;-0.0044;0.9951;-0.0610;0.0000;0.3662;-4.0265;-8.7506;-29.0698;34.7600 
1484.973;0.0708;-0.0044;0.9951;-0.0610;0.0000;0.3662;-4.0155;-8.7396;-29.0863;34.8400 
1484.973;0.0708;-0.0044;0.9951;-0.0610;0.0000;0.3662;-4.0045;-8.7231;-29.1028;34.8400 
1484.973;0.0708;-0.0044;0.9951;-0.0610;0.0000;0.3662;-3.9935;-8.7122;-29.1193;34.8400 
1485.073;0.0708;-0.0044;0.9951;-0.0610;0.0000;0.3662;-3.9825;-8.6957;-29.1302;34.8000 
1485.073;0.0708;-0.0044;0.9951;-0.0610;0.0000;0.3662;-3.9716;-8.6847;-29.1467;34.8000 
1485.073;0.0708;-0.0044;0.9951;-0.0610;0.0000;0.3662;-3.9606;-8.6737;-29.1632;34.8100 
1485.083;0.0752;-0.0054;0.9951;0.0000;0.0000;0.0610;-3.9496;-8.6572;-29.1797;34.8100 
1485.083;0.0752;-0.0054;0.9951;0.0000;0.0000;0.0610;-3.9386;-8.6462;-29.1962;34.8400 
1485.083;0.0752;-0.0054;0.9951;0.0000;0.0000;0.0610;-3.9276;-8.6353;-29.2126;34.8400 
1485.083;0.0752;-0.0054;0.9951;0.0000;0.0000;0.0610;-3.9166;-8.6188;-29.2291;34.8300 
1485.083;0.0752;-0.0054;0.9951;0.0000;0.0000;0.0610;-3.9056;-8.6078;-29.2456;34.8300 
1485.083;0.0752;-0.0054;0.9951;0.0000;0.0000;0.0610;-3.8892;-8.5968;-29.2621;34.7800 
1485.083;0.0752;-0.0054;0.9951;0.0000;0.0000;0.0610;-3.8782;-8.5858;-29.2731;34.7800 
1485.083;0.0752;-0.0054;0.9951;0.0000;0.0000;0.0610;-3.8672;-8.5693;-29.2896;34.7900 
1485.093;0.0757;-0.0054;0.9951;0.0000;0.0000;-0.0610;-3.8562;-8.5583;-29.3060;34.7900 
1485.093;0.0757;-0.0054;0.9951;0.0000;0.0000;-0.0610;-3.8452;-8.5474;-29.3225;34.8400 
1485.093;0.0757;-0.0054;0.9951;0.0000;0.0000;-0.0610;-3.8342;-8.5364;-29.3390;34.8400 
1485.093;0.0757;-0.0054;0.9951;0.0000;0.0000;-0.0610;-3.8232;-8.5254;-29.3555;34.9100 
1485.153;0.0757;-0.0054;0.9951;0.0000;0.0000;-0.0610;-3.8123;-8.5089;-29.3774;34.9100 
1485.153;0.0757;-0.0054;0.9951;0.0000;0.0000;-0.0610;-3.8013;-8.4979;-29.3939;34.9100 
1485.153;0.0757;-0.0054;0.9951;0.0000;0.0000;-0.0610;-3.7903;-8.4869;-29.4104;34.7700 
1485.153;0.0757;-0.0054;0.9951;0.0000;0.0000;-0.0610;-3.7793;-8.4760;-29.4324;34.7700 
1485.163;0.0742;-0.0049;0.9951;0.0000;0.0000;-0.1221;-3.7683;-8.4650;-29.4489;34.8500 
1485.163;0.0742;-0.0049;0.9951;0.0000;0.0000;-0.1221;-3.7573;-8.4540;-29.4653;34.8500 
1485.163;0.0742;-0.0049;0.9951;0.0000;0.0000;-0.1221;-3.7463;-8.4375;-29.4818;34.7500 
1485.163;0.0742;-0.0049;0.9951;0.0000;0.0000;-0.1221;-3.7354;-8.4265;-29.4983;34.7500 
1485.183;0.0742;-0.0049;0.9951;0.0000;0.0000;-0.1221;-3.7244;-8.4155;-29.5203;34.7800 
1485.183;0.0742;-0.0049;0.9951;0.0000;0.0000;-0.1221;-3.7134;-8.4045;-29.5367;34.7800 
1485.183;0.0742;-0.0049;0.9951;0.0000;0.0000;-0.1221;-3.7024;-8.3936;-29.5477;34.8300 
1485.273;0.0742;-0.0049;0.9951;0.0000;0.0000;-0.1221;-3.6914;-8.3826;-29.5642;34.8300 
1485.273;0.0718;-0.0039;0.9951;0.0000;0.0000;-0.1221;-3.6804;-8.3661;-29.5807;34.8000 
1485.273;0.0718;-0.0039;0.9951;0.0000;0.0000;-0.1221;-3.6694;-8.3551;-29.5972;34.8000 
1485.273;0.0718;-0.0039;0.9951;0.0000;0.0000;-0.1221;-3.6584;-8.3441;-29.6136;34.8000 
1485.283;0.0718;-0.0039;0.9951;0.0000;0.0000;-0.1221;-3.6475;-8.3331;-29.6301;34.8000 
1485.283;0.0718;-0.0039;0.9951;0.0000;0.0000;-0.1221;-3.6365;-8.3167;-29.6466;34.8500 
1485.283;0.0718;-0.0039;0.9951;0.0000;0.0000;-0.1221;-3.6255;-8.3057;-29.6631;34.8500 
1485.283;0.0718;-0.0039;0.9951;0.0000;0.0000;-0.1221;-3.6145;-8.2947;-29.6796;34.8500 
1485.283;0.0718;-0.0039;0.9951;0.0000;0.0000;-0.1221;-3.6035;-8.2837;-29.6906;34.8400 
1485.283;0.0698;-0.0034;0.9951;0.0000;0.0000;-0.0610;-3.5925;-8.2727;-29.7070;34.8400 
1485.283;0.0698;-0.0034;0.9951;0.0000;0.0000;-0.0610;-3.5815;-8.2562;-29.7235;34.8100 
1485.283;0.0698;-0.0034;0.9951;0.0000;0.0000;-0.0610;-3.5706;-8.2452;-29.7400;34.8100 
1485.313;0.0698;-0.0034;0.9951;0.0000;0.0000;-0.0610;-3.5596;-8.2343;-29.7565;34.8400 
1485.313;0.0698;-0.0034;0.9951;0.0000;0.0000;-0.0610;-3.5486;-8.2233;-29.7675;34.8400 
1485.313;0.0698;-0.0034;0.9951;0.0000;0.0000;-0.0610;-3.5376;-8.2068;-29.7839;34.8400 
1485.313;0.0698;-0.0034;0.9951;0.0000;0.0000;-0.0610;-3.5266;-8.1958;-29.8004;34.8400 
1485.333;0.0698;-0.0034;0.9951;0.0000;0.0000;-0.0610;-3.5156;-8.1848;-29.8169;34.8400 
1485.333;0.0684;-0.0029;0.9951;0.0000;0.0000;0.0000;-3.5046;-8.1738;-29.8334;34.8400 
1485.333;0.0684;-0.0029;0.9951;0.0000;0.0000;0.0000;-3.4937;-8.1628;-29.8444;34.8400 
1485.333;0.0684;-0.0029;0.9951;0.0000;0.0000;0.0000;-3.4827;-8.1464;-29.8608;34.8400 
1485.483;0.0684;-0.0029;0.9951;0.0000;0.0000;0.0000;-3.4717;-8.1354;-29.8718;34.8400 
1485.483;0.0684;-0.0029;0.9951;0.0000;0.0000;0.0000;-3.4607;-8.1244;-29.8828;34.8400 
1485.483;0.0684;-0.0029;0.9951;0.0000;0.0000;0.0000;-3.4552;-8.1134;-29.8993;34.8400 
1485.483;0.0684;-0.0029;0.9951;0.0000;0.0000;0.0000;-3.4442;-8.0969;-29.9103;34.8100 
1485.503;0.0684;-0.0029;0.9951;0.0000;0.0000;0.0000;-3.4332;-8.0859;-29.9268;34.8100 
1485.503;0.0679;-0.0024;0.9946;0.0000;0.0000;0.0000;-3.4222;-8.0750;-29.9432;34.8200 
1485.503;0.0679;-0.0024;0.9946;0.0000;0.0000;0.0000;-3.4113;-8.0640;-29.9542;34.8200 
1485.503;0.0679;-0.0024;0.9946;0.0000;0.0000;0.0000;-3.4003;-8.0530;-29.9707;34.7900 
1485.503;0.0679;-0.0024;0.9946;0.0000;0.0000;0.0000;-3.3893;-8.0365;-29.9817;34.7900 
1485.503;0.0679;-0.0024;0.9946;0.0000;0.0000;0.0000;-3.3783;-8.0255;-29.9927;34.8000 
1485.503;0.0679;-0.0024;0.9946;0.0000;0.0000;0.0000;-3.3673;-8.0145;-30.0092;34.8000 
1485.533;0.0679;-0.0024;0.9946;0.0000;0.0000;0.0000;-3.3618;-8.0035;-30.0201;34.8500 
1485.533;0.0679;-0.0024;0.9946;0.0000;0.0000;0.0000;-3.3508;-7.9926;-30.0366;34.8500 
1485.533;0.0674;-0.0024;0.9946;0.0000;0.0000;0.0000;-3.3398;-7.9816;-30.0476;34.8500 
1485.533;0.0674;-0.0024;0.9946;0.0000;0.0000;0.0000;-3.3289;-7.9651;-30.0586;34.8500 
1485.573;0.0674;-0.0024;0.9946;0.0000;0.0000;0.0000;-3.3179;-7.9541;-30.0751;34.8300 
1485.573;0.0674;-0.0024;0.9946;0.0000;0.0000;0.0000;-3.3069;-7.9431;-30.0861;34.8300 
1485.573;0.0674;-0.0024;0.9946;0.0000;0.0000;0.0000;-3.3014;-7.9321;-30.0970;34.7800 
1485.573;0.0674;-0.0024;0.9946;0.0000;0.0000;0.0000;-3.2904;-7.9211;-30.1135;34.7800 
1485.693;0.0674;-0.0024;0.9946;0.0000;0.0000;0.0000;-3.2794;-7.9102;-30.1245;34.7800 
1485.693;0.0674;-0.0024;0.9946;0.0000;0.0000;0.0000;-3.2684;-7.8937;-30.1355;34.8900 
1485.693;0.0674;-0.0020;0.9946;0.0000;0.0000;0.0000;-3.2574;-7.8827;-30.1465;34.8900 
1485.693;0.0674;-0.0020;0.9946;0.0000;0.0000;0.0000;-3.2520;-7.8717;-30.1630;34.8200 
1485.713;0.0674;-0.0020;0.9946;0.0000;0.0000;0.0000;-3.2410;-7.8607;-30.1740;34.8200 
1485.713;0.0674;-0.0020;0.9946;0.0000;0.0000;0.0000;-3.2300;-7.8497;-30.1849;34.8300 
1485.713;0.0674;-0.0020;0.9946;0.0000;0.0000;0.0000;-3.2190;-7.8387;-30.1959;34.8300 
1485.713;0.0674;-0.0020;0.9946;0.0000;0.0000;0.0000;-3.2080;-7.8278;-30.2124;34.8700 
1485.713;0.0674;-0.0020;0.9946;0.0000;0.0000;0.0000;-3.2025;-7.8168;-30.2234;34.8700 
1485.713;0.0674;-0.0020;0.9946;0.0000;0.0000;0.0000;-3.1915;-7.8058;-30.2344;34.8200 
1485.713;0.0674;-0.0020;0.9946;0.0000;0.0000;0.0000;-3.1805;-7.7893;-30.2454;34.8200 
1485.713;0.0674;-0.0020;0.9946;0.0000;0.0000;0.0000;-3.1696;-7.7783;-30.2563;34.8100 
1485.713;0.0674;-0.0020;0.9946;0.0000;0.0000;0.0000;-3.1641;-7.7673;-30.2673;34.8100 
1485.713;0.0674;-0.0020;0.9946;0.0000;0.0000;0.0000;-3.1531;-7.7563;-30.2783;34.8000 
1485.713;0.0674;-0.0020;0.9946;0.0000;0.0000;0.0000;-3.1421;-7.7454;-30.2948;34.8000 
1485.713;0.0674;-0.0020;0.9946;0.0000;0.0000;0.0000;-3.1311;-7.7344;-30.3003;34.8100 
1485.713;0.0674;-0.0020;0.9946;0.0000;0.0000;0.0000;-3.1256;-7.7234;-30.3113;34.8100 
1485.713;0.0674;-0.0020;0.9946;0.0000;0.0000;0.0000;-3.1146;-7.7124;-30.3223;34.8100 
1485.713;0.0679;-0.0020;0.9946;0.0000;0.0000;0.0000;-3.1036;-7.7014;-30.3333;34.8300 
1485.723;0.0679;-0.0020;0.9946;0.0000;0.0000;0.0000;-3.0927;-7.6904;-30.3442;34.8300 
1485.723;0.0679;-0.0020;0.9946;0.0000;0.0000;0.0000;-3.0872;-7.6794;-30.3552;34.8600 
1485.723;0.0679;-0.0020;0.9946;0.0000;0.0000;0.0000;-3.0762;-7.6685;-30.3662;34.8600 
1485.723;0.0679;-0.0020;0.9946;0.0000;0.0000;0.0000;-3.0652;-7.6575;-30.3772;34.8700 
1485.743;0.0679;-0.0020;0.9946;0.0000;0.0000;0.0000;-3.0597;-7.6465;-30.3882;34.8700 
1485.743;0.0679;-0.0020;0.9946;0.0000;0.0000;0.0000;-3.0487;-7.6355;-30.3992;34.8100 
1485.743;0.0679;-0.0020;0.9946;0.0000;0.0000;0.0000;-3.0377;-7.6245;-30.4102;34.8100 
1485.743;0.0684;-0.0024;0.9951;0.0000;0.0000;0.0000;-3.0322;-7.6135;-30.4211;34.7900 
1485.753;0.0684;-0.0024;0.9951;0.0000;0.0000;0.0000;-3.0212;-7.6025;-30.4321;34.7900 
1485.753;0.0684;-0.0024;0.9951;0.0000;0.0000;0.0000;-3.0103;-7.5916;-30.4431;34.7500 
1485.753;0.0684;-0.0024;0.9951;0.0000;0.0000;0.0000;-3.0048;-7.5806;-30.4541;34.7500 
1485.753;0.0684;-0.0024;0.9951;0.0000;0.0000;0.0000;-2.9938;-7.5696;-30.4651;34.8300 
1485.753;0.0684;-0.0024;0.9951;0.0000;0.0000;0.0000;-2.9828;-7.5586;-30.4761;34.8300 
1485.753;0.0684;-0.0024;0.9951;0.0000;0.0000;0.0000;-2.9773;-7.5476;-30.4871;34.8200 
1485.753;0.0684;-0.0024;0.9951;0.0000;0.0000;0.0000;-2.9663;-7.5366;-30.4980;34.8200 
1485.753;0.0684;-0.0024;0.9951;0.0000;0.0000;0.0000;-2.9608;-7.5256;-30.5090;34.8200 
1485.763;0.0684;-0.0024;0.9951;0.0000;0.0000;0.0000;-2.9498;-7.5146;-30.5200;34.8600 
1485.763;0.0684;-0.0024;0.9951;0.0000;0.0000;0.0000;-2.9388;-7.5092;-30.5310;34.8600 
1485.763;0.0684;-0.0024;0.9951;0.0000;0.0000;0.0000;-2.9333;-7.4982;-30.5420;34.7800 
1485.783;0.0684;-0.0024;0.9951;0.0000;0.0000;0.0000;-2.9224;-7.4872;-30.5530;34.7800 
1485.783;0.0684;-0.0024;0.9951;0.0000;0.0000;0.0000;-2.9169;-7.4762;-30.5640;34.8700 
1485.783;0.0684;-0.0024;0.9951;0.0000;0.0000;0.0000;-2.9059;-7.4652;-30.5750;34.8700 
1485.783;0.0684;-0.0024;0.9951;0.0000;0.0000;0.0000;-2.8949;-7.4542;-30.5859;34.7900 
1485.793;0.0684;-0.0029;0.9946;0.0000;0.0000;0.0000;-2.8894;-7.4432;-30.6024;34.7900 
1485.793;0.0684;-0.0029;0.9946;0.0000;0.0000;0.0000;-2.8784;-7.4323;-30.6134;34.8500 
1485.793;0.0684;-0.0029;0.9946;0.0000;0.0000;0.0000;-2.8729;-7.4268;-30.6244;34.8500 
1485.793;0.0684;-0.0029;0.9946;0.0000;0.0000;0.0000;-2.8619;-7.4158;-30.6354;34.7900 
1485.793;0.0684;-0.0029;0.9946;0.0000;0.0000;0.0000;-2.8564;-7.4048;-30.6464;34.7900 
1485.793;0.0684;-0.0029;0.9946;0.0000;0.0000;0.0000;-2.8455;-7.3938;-30.6573;34.8000 
1485.793;0.0684;-0.0029;0.9946;0.0000;0.0000;0.0000;-2.8400;-7.3828;-30.6683;34.8000 
1485.793;0.0684;-0.0029;0.9946;0.0000;0.0000;0.0000;-2.8290;-7.3718;-30.6793;34.8000 
1485.893;0.0684;-0.0029;0.9946;0.0000;0.0000;0.0000;-2.8235;-7.3608;-30.6903;34.7600 
1485.893;0.0684;-0.0029;0.9946;0.0000;0.0000;0.0000;-2.8125;-7.3553;-30.7013;34.7600 
1485.893;0.0684;-0.0029;0.9946;0.0000;0.0000;0.0000;-2.8015;-7.3444;-30.7123;34.8900 
1485.893;0.0684;-0.0029;0.9946;0.0000;0.0000;0.0000;-2.7960;-7.3334;-30.7233;34.8900 
1485.903;0.0684;-0.0029;0.9946;0.0000;0.0000;0.0000;-2.7850;-7.3224;-30.7343;34.8600 
1485.903;0.0684;-0.0029;0.9946;0.0000;0.0000;0.0000;-2.7795;-7.3114;-30.7397;34.8600 
1485.903;0.0684;-0.0029;0.9946;0.0000;0.0000;0.0000;-2.7686;-7.3059;-30.7507;34.8100 
1485.903;0.0684;-0.0029;0.9946;0.0000;0.0000;0.0000;-2.7631;-7.2949;-30.7617;34.8100 
1485.903;0.0688;-0.0034;0.9946;0.0000;0.0000;0.0000;-2.7576;-7.2839;-30.7672;34.8400 
1485.903;0.0688;-0.0034;0.9946;0.0000;0.0000;0.0000;-2.7466;-7.2729;-30.7782;34.8400 
1485.903;0.0688;-0.0034;0.9946;0.0000;0.0000;0.0000;-2.7411;-7.2620;-30.7837;34.8500 
1485.903;0.0688;-0.0034;0.9946;0.0000;0.0000;0.0000;-2.7301;-7.2565;-30.7947;34.8500 
1485.903;0.0688;-0.0034;0.9946;0.0000;0.0000;0.0000;-2.7246;-7.2455;-30.8057;34.8300 
1485.903;0.0688;-0.0034;0.9946;0.0000;0.0000;0.0000;-2.7136;-7.2345;-30.8167;34.8300 
1485.903;0.0688;-0.0034;0.9946;0.0000;0.0000;0.0000;-2.7081;-7.2235;-30.8221;34.8300 
1485.903;0.0688;-0.0034;0.9946;0.0000;0.0000;0.0000;-2.6971;-7.2180;-30.8331;34.8300 
1485.903;0.0684;-0.0029;0.9946;0.0000;0.0000;0.0000;-2.6917;-7.2070;-30.8441;34.8300 
1485.903;0.0684;-0.0029;0.9946;0.0000;0.0000;0.0000;-2.6862;-7.1960;-30.8551;34.8200 
1485.903;0.0684;-0.0029;0.9946;0.0000;0.0000;0.0000;-2.6752;-7.1851;-30.8661;34.8200 
1485.943;0.0684;-0.0029;0.9946;0.0000;0.0000;0.0000;-2.6697;-7.1796;-30.8771;34.8100 
1485.943;0.0684;-0.0029;0.9946;0.0000;0.0000;0.0000;-2.6587;-7.1686;-30.8881;34.8100 
1485.943;0.0684;-0.0029;0.9946;0.0000;0.0000;0.0000;-2.6532;-7.1576;-30.8990;34.8100 
1485.943;0.0684;-0.0029;0.9946;0.0000;0.0000;0.0000;-2.6422;-7.1466;-30.9100;34.8100 
1485.993;0.0684;-0.0029;0.9946;0.0000;0.0000;0.0000;-2.6367;-7.1411;-30.9210;34.8100 
1485.993;0.0684;-0.0029;0.9946;0.0000;0.0000;0.0000;-2.6312;-7.1301;-30.9265;34.8100 
1485.993;0.0684;-0.0029;0.9946;0.0000;0.0000;0.0000;-2.6202;-7.1191;-30.9375;34.8300 
1485.993;0.0684;-0.0029;0.9946;0.0000;0.0000;0.0000;-2.6147;-7.1136;-30.9485;34.8300 
1486.122;0.0684;-0.0029;0.9946;0.0000;0.0000;0.0000;-2.6038;-7.1027;-30.9595;34.8000 
1486.122;0.0684;-0.0029;0.9946;0.0000;0.0000;0.0000;-2.5983;-7.0917;-30.9650;34.8000 
1486.122;0.0684;-0.0029;0.9946;0.0000;0.0000;0.0000;-2.5928;-7.0862;-30.9760;34.8400 
1486.122;0.0684;-0.0029;0.9946;0.0000;0.0000;0.0000;-2.5818;-7.0752;-30.9814;34.8400 
1486.142;0.0684;-0.0029;0.9946;0.0000;0.0000;0.0000;-2.5763;-7.0642;-30.9924;34.7900 
1486.142;0.0688;-0.0024;0.9946;0.0000;0.0000;0.0000;-2.5708;-7.0532;-31.0034;34.7900 
1486.142;0.0688;-0.0024;0.9946;0.0000;0.0000;0.0000;-2.5598;-7.0477;-31.0144;34.7900 
1486.142;0.0688;-0.0024;0.9946;0.0000;0.0000;0.0000;-2.5543;-7.0367;-31.0199;34.8700 
1486.142;0.0688;-0.0024;0.9946;0.0000;0.0000;0.0000;-2.5433;-7.0313;-31.0309;34.8700 
1486.142;0.0688;-0.0024;0.9946;0.0000;0.0000;0.0000;-2.5378;-7.0203;-31.0419;34.8100 
1486.142;0.0688;-0.0024;0.9946;0.0000;0.0000;0.0000;-2.5323;-7.0093;-31.0474;34.8100 
1486.152;0.0688;-0.0024;0.9946;0.0000;0.0000;0.0000;-2.5214;-7.0038;-31.0583;34.8100 
1486.152;0.0688;-0.0024;0.9946;0.0000;0.0000;0.0000;-2.5159;-6.9928;-31.0693;34.8100 
1486.152;0.0688;-0.0024;0.9946;0.0000;0.0000;0.0000;-2.5104;-6.9818;-31.0803;34.8600 
1486.152;0.0688;-0.0024;0.9946;0.0000;0.0000;0.0000;-2.4994;-6.9763;-31.0858;34.8600 
1486.272;0.0688;-0.0024;0.9946;0.0000;0.0000;0.0000;-2.4939;-6.9653;-31.0968;34.8200 
1486.272;0.0688;-0.0024;0.9946;0.0000;0.0000;0.0000;-2.4884;-6.9598;-31.1078;34.8200 
1486.272;0.0688;-0.0024;0.9946;0.0000;0.0000;0.0000;-2.4774;-6.9489;-31.1133;34.8100 
1486.272;0.0688;-0.0024;0.9946;0.0000;0.0000;0.0000;-2.4719;-6.9379;-31.1188;34.8100 
1486.332;0.0688;-0.0024;0.9946;0.0000;0.0000;0.0000;-2.4664;-6.9324;-31.1298;34.8600 
1486.332;0.0688;-0.0024;0.9946;0.0000;0.0000;0.0000;-2.4554;-6.9214;-31.1353;34.8600 
1486.332;0.0688;-0.0024;0.9946;0.0000;0.0000;0.0000;-2.4500;-6.9159;-31.1462;34.8200 
1486.332;0.0688;-0.0024;0.9946;0.0000;0.0000;0.0000;-2.4445;-6.9049;-31.1517;34.8200 
1486.382;0.0688;-0.0024;0.9946;0.0000;0.0000;0.0000;-2.4335;-6.8939;-31.1627;34.8200 
1486.382;0.0688;-0.0024;0.9946;0.0000;0.0000;0.0000;-2.4280;-6.8884;-31.1682;34.8500 
1486.382;0.0688;-0.0024;0.9946;0.0000;0.0000;0.0000;-2.4225;-6.8774;-31.1792;34.8500 
1486.382;0.0688;-0.0024;0.9946;0.0000;0.0000;0.0000;-2.4115;-6.8719;-31.1902;34.7600 
1486.482;0.0688;-0.0024;0.9946;0.0000;0.0000;0.0000;-2.4060;-6.8610;-31.1957;34.7600 
1486.482;0.0688;-0.0029;0.9951;0.0000;0.0000;0.0000;-2.4005;-6.8555;-31.2012;34.8100 
1486.482;0.0688;-0.0029;0.9951;0.0000;0.0000;0.0000;-2.3950;-6.8445;-31.2122;34.8100 
1486.482;0.0688;-0.0029;0.9951;0.0000;0.0000;0.0000;-2.3840;-6.8335;-31.2177;34.7700 
1486.522;0.0688;-0.0029;0.9951;0.0000;0.0000;0.0000;-2.3785;-6.8280;-31.2286;34.7700 
1486.522;0.0688;-0.0029;0.9951;0.0000;0.0000;0.0000;-2.3730;-6.8170;-31.2396;34.8400 
1486.522;0.0688;-0.0029;0.9951;0.0000;0.0000;0.0000;-2.3676;-6.8115;-31.2451;34.8400 
1486.522;0.0688;-0.0029;0.9951;0.0000;0.0000;0.0000;-2.3566;-6.8005;-31.2561;34.8200 
1486.762;0.0688;-0.0029;0.9951;0.0000;0.0000;0.0000;-2.3511;-6.7950;-31.2671;34.8200 
1486.762;0.0688;-0.0029;0.9951;0.0000;0.0000;0.0000;-2.3456;-6.7841;-31.2726;34.8100 
1486.762;0.0688;-0.0029;0.9951;0.0000;0.0000;0.0000;-2.3401;-6.7786;-31.2836;34.8100 
1486.772;0.0688;-0.0029;0.9951;0.0000;0.0000;0.0000;-2.3291;-6.7676;-31.2946;34.8100 
1486.772;0.0688;-0.0029;0.9951;0.0000;0.0000;0.0000;-2.3236;-6.7621;-31.3055;34.8100 
1486.772;0.0688;-0.0029;0.9951;0.0000;0.0000;0.0000;-2.3181;-6.7511;-31.3165;34.8100 
1486.772;0.0688;-0.0029;0.9951;0.0000;0.0000;0.0000;-2.3126;-6.7456;-31.3220;34.8200 
1486.812;0.0688;-0.0029;0.9951;0.0000;0.0000;0.0000;-2.3071;-6.7346;-31.3330;34.8200 
1486.812;0.0688;-0.0029;0.9951;0.0000;0.0000;0.0000;-2.2961;-6.7291;-31.3440;34.8700 
1486.812;0.0684;-0.0029;0.9951;0.0000;0.0000;0.0000;-2.2906;-6.7181;-31.3550;34.8700 
1486.812;0.0684;-0.0029;0.9951;0.0000;0.0000;0.0000;-2.2852;-6.7126;-31.3660;34.8000 
1486.902;0.0684;-0.0029;0.9951;0.0000;0.0000;0.0000;-2.2797;-6.7017;-31.3770;34.8000 
1486.902;0.0684;-0.0029;0.9951;0.0000;0.0000;0.0000;-2.2687;-6.6962;-31.3879;34.8600 
1486.902;0.0684;-0.0029;0.9951;0.0000;0.0000;0.0000;-2.2632;-6.6852;-31.3934;34.8600 
1486.902