Time;ax;ay;az;wx;wy;wz;AngleX;AngleY;AngleZ;T 
1640.787;0.0059;0.0156;0.9927;0.0000;-0.0610;0.0000;0.8569;-0.3625;-48.6804;34.7300 
1640.787;0.0063;0.0156;0.9932;0.0000;-0.0610;0.0000;0.8569;-0.3625;-48.6804;34.7300 
1640.787;0.0063;0.0156;0.9932;0.0000;-0.0610;0.0000;0.8569;-0.3625;-48.6804;34.7800 
1640.787;0.0063;0.0156;0.9932;0.0000;-0.0610;0.0000;0.8569;-0.3625;-48.6804;34.7800 
1640.787;0.0063;0.0156;0.9932;0.0000;-0.0610;0.0000;0.8569;-0.3680;-48.6804;34.7800 
1640.787;0.0063;0.0156;0.9932;0.0000;-0.0610;0.0000;0.8569;-0.3680;-48.6749;34.7800 
1640.787;0.0063;0.0156;0.9932;0.0000;-0.0610;0.0000;0.8569;-0.3680;-48.6749;34.8200 
1640.787;0.0063;0.0156;0.9932;0.0000;-0.0610;0.0000;0.8569;-0.3680;-48.6749;34.8200 
1640.787;0.0063;0.0156;0.9932;0.0000;-0.0610;0.0000;0.8569;-0.3680;-48.6749;34.7700 
1640.787;0.0063;0.0181;0.9922;0.0000;-0.0610;0.0000;0.8624;-0.3680;-48.6749;34.7700 
1640.787;0.0063;0.0181;0.9922;0.0000;-0.0610;0.0000;0.8624;-0.3680;-48.6749;34.7500 
1640.787;0.0063;0.0181;0.9922;0.0000;-0.0610;0.0000;0.8624;-0.3680;-48.6749;34.7500 
1640.787;0.0063;0.0181;0.9922;0.0000;-0.0610;0.0000;0.8624;-0.3680;-48.6749;34.7600 
1640.787;0.0063;0.0181;0.9922;0.0000;-0.0610;0.0000;0.8624;-0.3680;-48.6749;34.7600 
1640.787;0.0063;0.0181;0.9922;0.0000;-0.0610;0.0000;0.8624;-0.3680;-48.6749;34.7600 
1640.787;0.0063;0.0181;0.9922;0.0000;-0.0610;0.0000;0.8624;-0.3680;-48.6749;34.7700 
1640.787;0.0063;0.0181;0.9922;0.0000;-0.0610;0.0000;0.8624;-0.3680;-48.6749;34.7700 
1640.787;0.0054;0.0151;0.9922;-0.0610;-0.0610;0.0610;0.8624;-0.3680;-48.6749;34.8200 
1640.787;0.0054;0.0151;0.9922;-0.0610;-0.0610;0.0610;0.8624;-0.3680;-48.6749;34.8200 
1640.787;0.0054;0.0151;0.9922;-0.0610;-0.0610;0.0610;0.8624;-0.3680;-48.6749;34.7500 
1640.787;0.0054;0.0151;0.9922;-0.0610;-0.0610;0.0610;0.8624;-0.3680;-48.6749;34.7500 
1640.817;0.0054;0.0151;0.9922;-0.0610;-0.0610;0.0610;0.8624;-0.3680;-48.6804;34.7600 
1640.817;0.0054;0.0151;0.9922;-0.0610;-0.0610;0.0610;0.8624;-0.3680;-48.6804;34.7600 
1640.927;0.0054;0.0151;0.9922;-0.0610;-0.0610;0.0610;0.8624;-0.3680;-48.6804;34.7600 
1640.927;0.0054;0.0151;0.9922;-0.0610;-0.0610;0.0610;0.8624;-0.3680;-48.6804;34.7600 
1640.937;0.0059;0.0127;0.9922;-0.1221;-0.0610;0.0610;0.8624;-0.3680;-48.6804;34.7400 
1640.937;0.0059;0.0127;0.9922;-0.1221;-0.0610;0.0610;0.8624;-0.3680;-48.6804;34.7400 
1640.937;0.0059;0.0127;0.9922;-0.1221;-0.0610;0.0610;0.8569;-0.3680;-48.6804;34.8200 
1640.937;0.0059;0.0127;0.9922;-0.1221;-0.0610;0.0610;0.8569;-0.3735;-48.6859;34.8200 
1640.937;0.0059;0.0127;0.9922;-0.1221;-0.0610;0.0610;0.8569;-0.3735;-48.6859;34.7700 
1640.937;0.0059;0.0127;0.9922;-0.1221;-0.0610;0.0610;0.8569;-0.3735;-48.6859;34.7700 
1640.937;0.0059;0.0127;0.9922;-0.1221;-0.0610;0.0610;0.8569;-0.3735;-48.6859;34.7700 
1640.937;0.0059;0.0127;0.9922;-0.1221;-0.0610;0.0610;0.8569;-0.3735;-48.6859;34.7800 
1640.937;0.0059;0.0171;0.9912;-0.1221;-0.1221;0.0610;0.8514;-0.3735;-48.6914;34.7800 
1640.937;0.0059;0.0171;0.9912;-0.1221;-0.1221;0.0610;0.8514;-0.3735;-48.6914;34.7800 
1640.937;0.0059;0.0171;0.9912;-0.1221;-0.1221;0.0610;0.8514;-0.3735;-48.6914;34.7800 
1640.937;0.0059;0.0171;0.9912;-0.1221;-0.1221;0.0610;0.8514;-0.3735;-48.6969;34.7300 
1640.937;0.0059;0.0171;0.9912;-0.1221;-0.1221;0.0610;0.8514;-0.3735;-48.6969;34.7300 
1640.937;0.0059;0.0171;0.9912;-0.1221;-0.1221;0.0610;0.8514;-0.3735;-48.6969;34.7400 
1640.937;0.0059;0.0171;0.9912;-0.1221;-0.1221;0.0610;0.8514;-0.3735;-48.7024;34.7400 
1640.937;0.0059;0.0171;0.9912;-0.1221;-0.1221;0.0610;0.8514;-0.3735;-48.7024;34.8100 
1640.937;0.0063;0.0127;0.9922;-0.1221;-0.1831;0.0610;0.8514;-0.3790;-48.7024;34.8100 
1640.937;0.0063;0.0127;0.9922;-0.1221;-0.1831;0.0610;0.8514;-0.3790;-48.7024;34.8400 
1640.937;0.0063;0.0127;0.9922;-0.1221;-0.1831;0.0610;0.8514;-0.3790;-48.7024;34.8400 
1640.937;0.0063;0.0127;0.9922;-0.1221;-0.1831;0.0610;0.8514;-0.3790;-48.7079;34.7300 
1640.937;0.0063;0.0127;0.9922;-0.1221;-0.1831;0.0610;0.8459;-0.3790;-48.7079;34.7300 
1640.937;0.0063;0.0127;0.9922;-0.1221;-0.1831;0.0610;0.8459;-0.3790;-48.7079;34.7300 
1640.937;0.0063;0.0127;0.9922;-0.1221;-0.1831;0.0610;0.8459;-0.3790;-48.7079;34.8000 
1640.947;0.0063;0.0127;0.9922;-0.1221;-0.1831;0.0610;0.8459;-0.3845;-48.7079;34.8000 
1640.947;0.0068;0.0127;0.9917;-0.1831;-0.1831;0.0610;0.8459;-0.3845;-48.7079;34.7300 
1640.967;0.0068;0.0127;0.9917;-0.1831;-0.1831;0.0610;0.8405;-0.3845;-48.7024;34.7300 
1640.967;0.0068;0.0127;0.9917;-0.1831;-0.1831;0.0610;0.8405;-0.3845;-48.7024;34.8600 
1640.967;0.0068;0.0127;0.9917;-0.1831;-0.1831;0.0610;0.8405;-0.3845;-48.7079;34.8600 
1640.967;0.0068;0.0127;0.9917;-0.1831;-0.1831;0.0610;0.8405;-0.3900;-48.7079;34.8100 
1640.967;0.0068;0.0127;0.9917;-0.1831;-0.1831;0.0610;0.8405;-0.3900;-48.7079;34.8100 
1640.967;0.0068;0.0127;0.9917;-0.1831;-0.1831;0.0610;0.8350;-0.3900;-48.7079;34.7400 
1640.977;0.0068;0.0127;0.9917;-0.1831;-0.1831;0.0610;0.8350;-0.3900;-48.7079;34.7400 
1640.977;0.0078;0.0151;0.9927;-0.1221;-0.1831;0.0610;0.8350;-0.3900;-48.7079;34.8100 
1641.067;0.0078;0.0151;0.9927;-0.1221;-0.1831;0.0610;0.8350;-0.3900;-48.7079;34.8100 
1641.067;0.0078;0.0151;0.9927;-0.1221;-0.1831;0.0610;0.8350;-0.3955;-48.7079;34.7700 
1641.087;0.0078;0.0151;0.9927;-0.1221;-0.1831;0.0610;0.8350;-0.3955;-48.7079;34.7700 
1641.087;0.0078;0.0151;0.9927;-0.1221;-0.1831;0.0610;0.8350;-0.3955;-48.7024;34.7300 
1641.087;0.0078;0.0151;0.9927;-0.1221;-0.1831;0.0610;0.8350;-0.3955;-48.7024;34.7300 
1641.087;0.0078;0.0151;0.9927;-0.1221;-0.1831;0.0610;0.8295;-0.3955;-48.7024;34.7300 
1641.087;0.0078;0.0151;0.9927;-0.1221;-0.1831;0.0610;0.8295;-0.4010;-48.7024;34.8100 
1641.087;0.0073;0.0132;0.9922;-0.1221;-0.1831;0.0610;0.8295;-0.4010;-48.7024;34.8100 
1641.087;0.0073;0.0132;0.9922;-0.1221;-0.1831;0.0610;0.8295;-0.4010;-48.7024;34.8100 
1641.087;0.0073;0.0132;0.9922;-0.1221;-0.1831;0.0610;0.8295;-0.4010;-48.7024;34.8100 
1641.087;0.0073;0.0132;0.9922;-0.1221;-0.1831;0.0610;0.8295;-0.4010;-48.7024;34.8100 
1641.087;0.0073;0.0132;0.9922;-0.1221;-0.1831;0.0610;0.8295;-0.4010;-48.7024;34.8100 
1641.087;0.0073;0.0132;0.9922;-0.1221;-0.1831;0.0610;0.8295;-0.4065;-48.7024;34.8400 
1641.087;0.0073;0.0132;0.9922;-0.1221;-0.1831;0.0610;0.8240;-0.4065;-48.7024;34.8400 
1641.087;0.0073;0.0132;0.9922;-0.1221;-0.1831;0.0610;0.8240;-0.4065;-48.7024;34.7600 
1641.087;0.0078;0.0122;0.9927;-0.1221;-0.1221;0.0610;0.8240;-0.4065;-48.7024;34.7600 
1641.087;0.0078;0.0122;0.9927;-0.1221;-0.1221;0.0610;0.8240;-0.4065;-48.7024;34.7500 
1641.087;0.0078;0.0122;0.9927;-0.1221;-0.1221;0.0610;0.8240;-0.4065;-48.7024;34.7500 
1641.087;0.0078;0.0122;0.9927;-0.1221;-0.1221;0.0610;0.8240;-0.4120;-48.7079;34.7500 
1641.087;0.0078;0.0122;0.9927;-0.1221;-0.1221;0.0610;0.8185;-0.4120;-48.7079;34.7500 
1641.087;0.0078;0.0122;0.9927;-0.1221;-0.1221;0.0610;0.8185;-0.4120;-48.7079;34.6800 
1641.097;0.0078;0.0122;0.9927;-0.1221;-0.1221;0.0610;0.8185;-0.4120;-48.7079;34.6800 
1641.097;0.0078;0.0122;0.9927;-0.1221;-0.1221;0.0610;0.8185;-0.4120;-48.7134;34.6800 
1641.117;0.0078;0.0166;0.9927;-0.0610;-0.1221;0.0610;0.8185;-0.4120;-48.7134;34.7700 
1641.117;0.0078;0.0166;0.9927;-0.0610;-0.1221;0.0610;0.8185;-0.4120;-48.7134;34.7700 
1641.117;0.0078;0.0166;0.9927;-0.0610;-0.1221;0.0610;0.8185;-0.4120;-48.7134;34.8100 
1641.117;0.0078;0.0166;0.9927;-0.0610;-0.1221;0.0610;0.8185;-0.4175;-48.7134;34.8100 
1641.117;0.0078;0.0166;0.9927;-0.0610;-0.1221;0.0610;0.8185;-0.4175;-48.7134;34.7000 
1641.117;0.0078;0.0166;0.9927;-0.0610;-0.1221;0.0610;0.8185;-0.4175;-48.7189;34.7000 
1641.207;0.0078;0.0166;0.9927;-0.0610;-0.1221;0.0610;0.8185;-0.4175;-48.7189;34.7200 
1641.207;0.0078;0.0166;0.9927;-0.0610;-0.1221;0.0610;0.8185;-0.4175;-48.7189;34.7200 
1641.227;0.0063;0.0137;0.9917;-0.0610;-0.0610;0.0610;0.8185;-0.4175;-48.7189;34.8200 
1641.227;0.0063;0.0137;0.9917;-0.0610;-0.0610;0.0610;0.8185;-0.4175;-48.7244;34.8200 
1641.227;0.0063;0.0137;0.9917;-0.0610;-0.0610;0.0610;0.8185;-0.4175;-48.7244;34.7700 
1641.227;0.0063;0.0137;0.9917;-0.0610;-0.0610;0.0610;0.8185;-0.4175;-48.7244;34.7700 
1641.227;0.0063;0.0137;0.9917;-0.0610;-0.0610;0.0610;0.8185;-0.4175;-48.7299;34.7500 
1641.227;0.0063;0.0137;0.9917;-0.0610;-0.0610;0.0610;0.8185;-0.4175;-48.7299;34.7500 
1641.227;0.0063;0.0137;0.9917;-0.0610;-0.0610;0.0610;0.8185;-0.4175;-48.7354;34.7800 
1641.227;0.0063;0.0137;0.9917;-0.0610;-0.0610;0.0610;0.8130;-0.4175;-48.7408;34.7800 
1641.227;0.0073;0.0142;0.9932;-0.1221;0.0000;0.0610;0.8130;-0.4175;-48.7408;34.7800 
1641.227;0.0073;0.0142;0.9932;-0.1221;0.0000;0.0610;0.8130;-0.4175;-48.7463;34.7400 
1641.227;0.0073;0.0142;0.9932;-0.1221;0.0000;0.0610;0.8130;-0.4175;-48.7518;34.7400 
1641.227;0.0073;0.0142;0.9932;-0.1221;0.0000;0.0610;0.8130;-0.4175;-48.7518;34.8100 
1641.227;0.0073;0.0142;0.9932;-0.1221;0.0000;0.0610;0.8130;-0.4175;-48.7518;34.8100 
1641.227;0.0073;0.0142;0.9932;-0.1221;0.0000;0.0610;0.8130;-0.4175;-48.7518;34.8200 
1641.227;0.0073;0.0142;0.9932;-0.1221;0.0000;0.0610;0.8130;-0.4175;-48.7518;34.8200 
1641.227;0.0073;0.0142;0.9932;-0.1221;0.0000;0.0610;0.8130;-0.4175;-48.7518;34.7100 
1641.227;0.0059;0.0151;0.9917;-0.1221;0.0000;0.0610;0.8130;-0.4175;-48.7573;34.7100 
1641.227;0.0059;0.0151;0.9917;-0.1221;0.0000;0.0610;0.8075;-0.4175;-48.7573;34.7200 
1641.237;0.0059;0.0151;0.9917;-0.1221;0.0000;0.0610;0.8075;-0.4175;-48.7573;34.7200 
1641.237;0.0059;0.0151;0.9917;-0.1221;0.0000;0.0610;0.8075;-0.4175;-48.7573;34.7700 
1641.237;0.0059;0.0151;0.9917;-0.1221;0.0000;0.0610;0.8075;-0.4175;-48.7573;34.7700 
1641.237;0.0059;0.0151;0.9917;-0.1221;0.0000;0.0610;0.8075;-0.4175;-48.7573;34.8000 
1641.247;0.0059;0.0151;0.9917;-0.1221;0.0000;0.0610;0.8075;-0.4175;-48.7518;34.8000 
1641.257;0.0059;0.0151;0.9917;-0.1221;0.0000;0.0610;0.8075;-0.4175;-48.7518;34.8000 
1641.257;0.0068;0.0142;0.9927;-0.1221;0.0000;0.0610;0.8075;-0.4175;-48.7573;34.7300 
1641.277;0.0068;0.0142;0.9927;-0.1221;0.0000;0.0610;0.8075;-0.4175;-48.7573;34.7300 
1641.277;0.0068;0.0142;0.9927;-0.1221;0.0000;0.0610;0.8075;-0.4175;-48.7573;34.8200 
1641.277;0.0068;0.0142;0.9927;-0.1221;0.0000;0.0610;0.8075;-0.4175;-48.7573;34.8200 
1641.277;0.0068;0.0142;0.9927;-0.1221;0.0000;0.0610;0.8075;-0.4175;-48.7573;34.7800 
1641.297;0.0068;0.0142;0.9927;-0.1221;0.0000;0.0610;0.8020;-0.4175;-48.7573;34.7800 
1641.297;0.0068;0.0142;0.9927;-0.1221;0.0000;0.0610;0.8020;-0.4175;-48.7573;34.7500 
1641.317;0.0068;0.0142;0.9927;-0.1221;0.0000;0.0610;0.8020;-0.4175;-48.7573;34.7500 
1641.317;0.0063;0.0132;0.9922;-0.1221;0.0000;0.0610;0.8020;-0.4175;-48.7573;34.7500 
1641.407;0.0063;0.0132;0.9922;-0.1221;0.0000;0.0610;0.8020;-0.4175;-48.7573;34.7500 
1641.407;0.0063;0.0132;0.9922;-0.1221;0.0000;0.0610;0.8020;-0.4175;-48.7573;34.8000 
1641.407;0.0063;0.0132;0.9922;-0.1221;0.0000;0.0610;0.8020;-0.4175;-48.7573;34.8000 
1641.407;0.0063;0.0132;0.9922;-0.1221;0.0000;0.0610;0.8020;-0.4175;-48.7628;34.7700 
1641.407;0.0063;0.0132;0.9922;-0.1221;0.0000;0.0610;0.7965;-0.4175;-48.7628;34.7700 
1641.407;0.0063;0.0132;0.9922;-0.1221;0.0000;0.0610;0.7965;-0.4175;-48.7628;34.8400 
1641.417;0.0063;0.0132;0.9922;-0.1221;0.0000;0.0610;0.7965;-0.4175;-48.7628;34.8400 
1641.417;0.0054;0.0127;0.9922;0.0000;0.0000;0.0000;0.7965;-0.4175;-48.7628;34.8400 
1641.417;0.0054;0.0127;0.9922;0.0000;0.0000;0.0000;0.7965;-0.4120;-48.7628;34.7700 
1641.417;0.0054;0.0127;0.9922;0.0000;0.0000;0.0000;0.7965;-0.4120;-48.7628;34.7700 
1641.417;0.0054;0.0127;0.9922;0.0000;0.0000;0.0000;0.7965;-0.4120;-48.7628;34.8200 
1641.417;0.0054;0.0127;0.9922;0.0000;0.0000;0.0000;0.7965;-0.4120;-48.7628;34.8200 
1641.417;0.0054;0.0127;0.9922;0.0000;0.0000;0.0000;0.7965;-0.4120;-48.7628;34.7500 
1641.417;0.0054;0.0127;0.9922;0.0000;0.0000;0.0000;0.7965;-0.4120;-48.7573;34.7500 
1641.417;0.0054;0.0127;0.9922;0.0000;0.0000;0.0000;0.7965;-0.4120;-48.7573;34.8100 
1641.417;0.0049;0.0088;0.9932;0.0000;0.0000;0.0000;0.7965;-0.4120;-48.7573;34.8100 
1641.417;0.0049;0.0088;0.9932;0.0000;0.0000;0.0000;0.7965;-0.4120;-48.7573;34.7400 
1641.417;0.0049;0.0088;0.9932;0.0000;0.0000;0.0000;0.7910;-0.4120;-48.7628;34.7400 
1641.417;0.0049;0.0088;0.9932;0.0000;0.0000;0.0000;0.7910;-0.4120;-48.7628;34.8100 
1641.417;0.0049;0.0088;0.9932;0.0000;0.0000;0.0000;0.7910;-0.4120;-48.7628;34.8100 
1641.417;0.0049;0.0088;0.9932;0.0000;0.0000;0.0000;0.7910;-0.4120;-48.7628;34.8100 
1641.417;0.0049;0.0088;0.9932;0.0000;0.0000;0.0000;0.7910;-0.4120;-48.7683;34.8100 
1641.427;0.0049;0.0088;0.9932;0.0000;0.0000;0.0000;0.7910;-0.4120;-48.7683;34.8000 
1641.437;0.0054;0.0142;0.9927;0.0000;0.0000;0.0000;0.7910;-0.4120;-48.7683;34.8000 
1641.437;0.0054;0.0142;0.9927;0.0000;0.0000;0.0000;0.7910;-0.4065;-48.7683;34.8000 
1641.437;0.0054;0.0142;0.9927;0.0000;0.0000;0.0000;0.7910;-0.4065;-48.7683;34.7500 
1641.437;0.0054;0.0142;0.9927;0.0000;0.0000;0.0000;0.7910;-0.4065;-48.7683;34.7500 
1641.437;0.0054;0.0142;0.9927;0.0000;0.0000;0.0000;0.7910;-0.4065;-48.7683;34.7400 
1641.437;0.0054;0.0142;0.9927;0.0000;0.0000;0.0000;0.7910;-0.4065;-48.7683;34.7400 
1641.457;0.0054;0.0142;0.9927;0.0000;0.0000;0.0000;0.7910;-0.4065;-48.7683;34.7900 
1641.457;0.0054;0.0142;0.9927;0.0000;0.0000;0.0000;0.7910;-0.4065;-48.7683;34.7900 
1641.477;0.0063;0.0127;0.9932;0.0000;0.0000;0.0000;0.7910;-0.4065;-48.7628;34.7800 
1641.477;0.0063;0.0127;0.9932;0.0000;0.0000;0.0000;0.7910;-0.4065;-48.7628;34.7800 
1641.477;0.0063;0.0127;0.9932;0.0000;0.0000;0.0000;0.7910;-0.4065;-48.7628;34.7200 
1641.477;0.0063;0.0127;0.9932;0.0000;0.0000;0.0000;0.7910;-0.4065;-48.7628;34.7200 
1641.487;0.0063;0.0127;0.9932;0.0000;0.0000;0.0000;0.7910;-0.4065;-48.7628;34.8200 
1641.487;0.0063;0.0127;0.9932;0.0000;0.0000;0.0000;0.7910;-0.4065;-48.7628;34.8200 
1641.487;0.0063;0.0127;0.9932;0.0000;0.0000;0.0000;0.7910;-0.4065;-48.7683;34.8200 
1641.487;0.0063;0.0127;0.9932;0.0000;0.0000;0.0000;0.7910;-0.4065;-48.7683;34.8200 
1641.497;0.0059;0.0137;0.9917;0.0000;0.0000;0.0000;0.7910;-0.4065;-48.7683;34.7500 
1641.497;0.0059;0.0137;0.9917;0.0000;0.0000;0.0000;0.7910;-0.4065;-48.7683;34.7500 
1641.507;0.0059;0.0137;0.9917;0.0000;0.0000;0.0000;0.7910;-0.4065;-48.7683;34.7500 
1641.507;0.0059;0.0137;0.9917;0.0000;0.0000;0.0000;0.7910;-0.4065;-48.7628;34.7600 
1641.617;0.0059;0.0137;0.9917;0.0000;0.0000;0.0000;0.7910;-0.4065;-48.7628;34.7600 
1641.617;0.0059;0.0137;0.9917;0.0000;0.0000;0.0000;0.7910;-0.4065;-48.7628;34.8000 
1641.647;0.0059;0.0137;0.9917;0.0000;0.0000;0.0000;0.7910;-0.4065;-48.7628;34.8000 
1641.647;0.0068;0.0156;0.9922;0.0000;0.0000;0.0000;0.7910;-0.4065;-48.7628;34.7900 
1641.647;0.0068;0.0156;0.9922;0.0000;0.0000;0.0000;0.7910;-0.4065;-48.7628;34.7900 
1641.647;0.0068;0.0156;0.9922;0.0000;0.0000;0.0000;0.7910;-0.4065;-48.7628;34.8100 
1641.647;0.0068;0.0156;0.9922;0.0000;0.0000;0.0000;0.7910;-0.4065;-48.7628;34.8100 
1641.647;0.0068;0.0156;0.9922;0.0000;0.0000;0.0000;0.7910;-0.4065;-48.7628;34.8100 
1641.647;0.0068;0.0156;0.9922;0.0000;0.0000;0.0000;0.7910;-0.4065;-48.7683;34.8100 
1641.647;0.0068;0.0156;0.9922;0.0000;0.0000;0.0000;0.7910;-0.4065;-48.7683;34.8200 
1641.647;0.0068;0.0156;0.9922;0.0000;0.0000;0.0000;0.7910;-0.4065;-48.7683;34.8200 
1641.647;0.0059;0.0156;0.9917;0.0000;0.0000;0.0000;0.7910;-0.4065;-48.7628;34.7400 
1641.647;0.0059;0.0156;0.9917;0.0000;0.0000;0.0000;0.7910;-0.4065;-48.7628;34.7400 
1641.647;0.0059;0.0156;0.9917;0.0000;0.0000;0.0000;0.7910;-0.4010;-48.7628;34.7400 
1641.647;0.0059;0.0156;0.9917;0.0000;0.0000;0.0000;0.7910;-0.4010;-48.7628;34.7200 
1641.647;0.0059;0.0156;0.9917;0.0000;0.0000;0.0000;0.7910;-0.4010;-48.7628;34.7200 
1641.647;0.0059;0.0156;0.9917;0.0000;0.0000;0.0000;0.7965;-0.4010;-48.7628;34.7800 
1641.647;0.0059;0.0156;0.9917;0.0000;0.0000;0.0000;0.7965;-0.4010;-48.7628;34.7800 
1641.647;0.0059;0.0156;0.9917;0.0000;0.0000;0.0000;0.7965;-0.4010;-48.7628;34.8300 
1641.647;0.0049;0.0122;0.9912;0.0000;0.0000;0.0000;0.7965;-0.4010;-48.7573;34.8300 
1641.647;0.0049;0.0122;0.9912;0.0000;0.0000;0.0000;0.7965;-0.4010;-48.7573;34.7700 
1641.647;0.0049;0.0122;0.9912;0.0000;0.0000;0.0000;0.7965;-0.4010;-48.7573;34.7700 
1641.647;0.0049;0.0122;0.9912;0.0000;0.0000;0.0000;0.7910;-0.4010;-48.7573;34.8100 
1641.667;0.0049;0.0122;0.9912;0.0000;0.0000;0.0000;0.7910;-0.4010;-48.7573;34.8100 
1641.667;0.0049;0.0122;0.9912;0.0000;0.0000;0.0000;0.7910;-0.4010;-48.7573;34.7600 
1641.677;0.0049;0.0122;0.9912;0.0000;0.0000;0.0000;0.7910;-0.4010;-48.7573;34.7600 
1641.677;0.0049;0.0122;0.9912;0.0000;0.0000;0.0000;0.7910;-0.4010;-48.7573;34.7500 
1641.677;0.0063;0.0127;0.9922;0.0000;0.0000;0.0000;0.7910;-0.4010;-48.7573;34.7500 
1641.677;0.0063;0.0127;0.9922;0.0000;0.0000;0.0000;0.7910;-0.4010;-48.7573;34.7200 
1641.677;0.0063;0.0127;0.9922;0.0000;0.0000;0.0000;0.7910;-0.4010;-48.7573;34.7200 
1641.677;0.0063;0.0127;0.9922;0.0000;0.0000;0.0000;0.7910;-0.4010;-48.7573;34.7200 
1641.677;0.0063;0.0127;0.9922;0.0000;0.0000;0.0000;0.7910;-0.4010;-48.7573;34.8200 
1641.677;0.0063;0.0127;0.9922;0.0000;0.0000;0.0000;0.7910;-0.4010;-48.7628;34.8200 
1641.697;0.0063;0.0127;0.9922;0.0000;0.0000;0.0000;0.7910;-0.4010;-48.7628;34.7700 
1641.697;0.0063;0.0127;0.9922;0.0000;0.0000;0.0000;0.7910;-0.4010;-48.7628;34.7700 
1641.697;0.0068;0.0146;0.9922;0.0000;0.0000;0.0000;0.7910;-0.4010;-48.7683;34.7600 
1641.697;0.0068;0.0146;0.9922;0.0000;0.0000;0.0000;0.7910;-0.4010;-48.7683;34.7600 
1641.707;0.0068;0.0146;0.9922;0.0000;0.0000;0.0000;0.7910;-0.4010;-48.7683;34.8400 
1641.707;0.0068;0.0146;0.9922;0.0000;0.0000;0.0000;0.7910;-0.4010;-48.7683;34.8400 
1641.717;0.0068;0.0146;0.9922;0.0000;0.0000;0.0000;0.7910;-0.4010;-48.7683;34.7600 
1641.717;0.0068;0.0146;0.9922;0.0000;0.0000;0.0000;0.7910;-0.4010;-48.7683;34.7600 
1641.727;0.0068;0.0146;0.9922;0.0000;0.0000;0.0000;0.7910;-0.4010;-48.7683;34.7300 
1641.727;0.0068;0.0146;0.9922;0.0000;0.0000;0.0000;0.7910;-0.4010;-48.7628;34.7300 
1641.817;0.0068;0.0063;0.9932;0.0000;0.0000;0.0000;0.7910;-0.4010;-48.7628;34.7700 
1641.817;0.0068;0.0063;0.9932;0.0000;0.0000;0.0000;0.7910;-0.4010;-48.7628;34.7700 
1641.817;0.0068;0.0063;0.9932;0.0000;0.0000;0.0000;0.7910;-0.4010;-48.7628;34.7700 
1641.837;0.0068;0.0063;0.9932;0.0000;0.0000;0.0000;0.7855;-0.4010;-48.7628;34.7700 
1641.837;0.0068;0.0063;0.9932;0.0000;0.0000;0.0000;0.7855;-0.4010;-48.7628;34.7700 
1641.837;0.0068;0.0063;0.9932;0.0000;0.0000;0.0000;0.7855;-0.4010;-48.7628;34.7700 
1641.837;0.0068;0.0063;0.9932;0.0000;0.0000;0.0000;0.7855;-0.4010;-48.7628;34.7700 
1641.837;0.0068;0.0063;0.9932;0.0000;0.0000;0.0000;0.7800;-0.4010;-48.7573;34.7600 
1641.837;0.0112;0.0112;0.9951;0.0000;0.0000;0.0000;0.7800;-0.4010;-48.7573;34.7600 
1641.837;0.0112;0.0112;0.9951;0.0000;0.0000;0.0000;0.7800;-0.4010;-48.7628;34.7600 
1641.837;0.0112;0.0112;0.9951;0.0000;0.0000;0.0000;0.7800;-0.4010;-48.7628;34.7600 
1641.837;0.0112;0.0112;0.9951;0.0000;0.0000;0.0000;0.7800;-0.4010;-48.7628;34.7700 
1641.837;0.0112;0.0112;0.9951;0.0000;0.0000;0.0000;0.7800;-0.4010;-48.7628;34.7700 
1641.837;0.0112;0.0112;0.9951;0.0000;0.0000;0.0000;0.7800;-0.4010;-48.7628;34.8400 
1641.837;0.0112;0.0112;0.9951;0.0000;0.0000;0.0000;0.7800;-0.4010;-48.7683;34.8400 
1641.837;0.0112;0.0112;0.9951;0.0000;0.0000;0.0000;0.7800;-0.4065;-48.7683;34.7600 
1641.837;0.0063;0.0146;0.9922;0.3662;0.1221;-0.1831;0.7800;-0.4010;-48.7683;34.7600 
1641.837;0.0063;0.0146;0.9922;0.3662;0.1221;-0.1831;0.7855;-0.4010;-48.7683;34.7300 
1641.837;0.0063;0.0146;0.9922;0.3662;0.1221;-0.1831;0.7855;-0.4010;-48.7738;34.7300 
1641.837;0.0063;0.0146;0.9922;0.3662;0.1221;-0.1831;0.7855;-0.4010;-48.7738;34.7600 
1641.837;0.0063;0.0146;0.9922;0.3662;0.1221;-0.1831;0.7910;-0.4010;-48.7738;34.7600 
1641.837;0.0063;0.0146;0.9922;0.3662;0.1221;-0.1831;0.7910;-0.4010;-48.7793;34.7600 
1641.837;0.0063;0.0146;0.9922;0.3662;0.1221;-0.1831;0.7965;-0.4010;-48.7793;34.7500 
1641.847;0.0063;0.0146;0.9922;0.3662;0.1221;-0.1831;0.7965;-0.4010;-48.7793;34.7500 
1641.847;0.0103;0.0161;0.9941;0.5493;0.1831;-0.1831;0.7965;-0.3955;-48.7848;34.7400 
1641.857;0.0103;0.0161;0.9941;0.5493;0.1831;-0.1831;0.8020;-0.3955;-48.7848;34.7400 
1641.867;0.0103;0.0161;0.9941;0.5493;0.1831;-0.1831;0.8075;-0.3955;-48.7903;34.7800 
1641.867;0.0103;0.0161;0.9941;0.5493;0.1831;-0.1831;0.8075;-0.3955;-48.7958;34.7800 
1641.877;0.0103;0.0161;0.9941;0.5493;0.1831;-0.1831;0.8130;-0.3955;-48.7958;34.7500 
1641.877;0.0103;0.0161;0.9941;0.5493;0.1831;-0.1831;0.8130;-0.3955;-48.8013;34.7500 
1641.877;0.0103;0.0161;0.9941;0.5493;0.1831;-0.1831;0.8185;-0.3955;-48.8013;34.7800 
1641.897;0.0103;0.0161;0.9941;0.5493;0.1831;-0.1831;0.8185;-0.3955;-48.8068;34.7800 
1641.917;0.0049;0.0166;0.9907;0.5493;0.3052;-0.1831;0.8240;-0.3955;-48.8068;34.7700 
1641.917;0.0049;0.0166;0.9907;0.5493;0.3052;-0.1831;0.8295;-0.3900;-48.8123;34.7700 
1641.917;0.0049;0.0166;0.9907;0.5493;0.3052;-0.1831;0.8295;-0.3900;-48.8177;34.7700 
1641.917;0.0049;0.0166;0.9907;0.5493;0.3052;-0.1831;0.8350;-0.3900;-48.8177;34.7700 
1641.917;0.0049;0.0166;0.9907;0.5493;0.3052;-0.1831;0.8350;-0.3845;-48.8232;34.7500 
1641.917;0.0049;0.0166;0.9907;0.5493;0.3052;-0.1831;0.8405;-0.3845;-48.8232;34.7500 
1641.927;0.0049;0.0166;0.9907;0.5493;0.3052;-0.1831;0.8405;-0.3845;-48.8232;34.7500 
1641.927;0.0049;0.0166;0.9907;0.5493;0.3052;-0.1831;0.8459;-0.3790;-48.8287;34.7500 
1642.017;0.0054;0.0195;0.9912;0.4883;0.3052;-0.1831;0.8514;-0.3790;-48.8287;34.7500 
1642.017;0.0054;0.0195;0.9912;0.4883;0.3052;-0.1831;0.8514;-0.3790;-48.8342;34.7400 
1642.037;0.0054;0.0195;0.9912;0.4883;0.3052;-0.1831;0.8569;-0.3735;-48.8342;34.7400 
1642.037;0.0054;0.0195;0.9912;0.4883;0.3052;-0.1831;0.8569;-0.3735;-48.8397;34.7500 
1642.037;0.0054;0.0195;0.9912;0.4883;0.3052;-0.1831;0.8624;-0.3735;-48.8397;34.7500 
1642.037;0.0054;0.0195;0.9912;0.4883;0.3052;-0.1831;0.8679;-0.3680;-48.8452;34.7100 
1642.037;0.0054;0.0195;0.9912;0.4883;0.3052;-0.1831;0.8679;-0.3680;-48.8452;34.7100 
1642.037;0.0054;0.0195;0.9912;0.4883;0.3052;-0.1831;0.8734;-0.3680;-48.8507;34.7100 
1642.037;0.0059;0.0190;0.9917;0.3662;0.3052;-0.1221;0.8734;-0.3625;-48.8507;34.7100 
1642.037;0.0059;0.0190;0.9917;0.3662;0.3052;-0.1221;0.8789;-0.3625;-48.8507;34.7600 
1642.037;0.0059;0.0190;0.9917;0.3662;0.3052;-0.1221;0.8789;-0.3625;-48.8507;34.7600 
1642.037;0.0059;0.0190;0.9917;0.3662;0.3052;-0.1221;0.8844;-0.3625;-48.8562;34.8300 
1642.037;0.0059;0.0190;0.9917;0.3662;0.3052;-0.1221;0.8844;-0.3571;-48.8562;34.8300 
1642.037;0.0059;0.0190;0.9917;0.3662;0.3052;-0.1221;0.8899;-0.3571;-48.8562;34.8300 
1642.037;0.0059;0.0190;0.9917;0.3662;0.3052;-0.1221;0.8899;-0.3571;-48.8562;34.7200 
1642.037;0.0059;0.0190;0.9917;0.3662;0.3052;-0.1221;0.8899;-0.3516;-48.8562;34.7200 
1642.037;0.0034;0.0156;0.9917;0.1831;0.1831;-0.0610;0.8954;-0.3516;-48.8562;34.7300 
1642.037;0.0034;0.0156;0.9917;0.1831;0.1831;-0.0610;0.8954;-0.3516;-48.8562;34.7300 
1642.037;0.0034;0.0156;0.9917;0.1831;0.1831;-0.0610;0.8954;-0.3516;-48.8562;34.7000 
1642.037;0.0034;0.0156;0.9917;0.1831;0.1831;-0.0610;0.8954;-0.3461;-48.8562;34.7000 
1642.037;0.0034;0.0156;0.9917;0.1831;0.1831;-0.0610;0.8954;-0.3461;-48.8562;34.7600 
1642.057;0.0034;0.0156;0.9917;0.1831;0.1831;-0.0610;0.8954;-0.3461;-48.8562;34.7600 
1642.057;0.0034;0.0156;0.9917;0.1831;0.1831;-0.0610;0.9009;-0.3461;-48.8562;34.7400 
1642.057;0.0034;0.0156;0.9917;0.1831;0.1831;-0.0610;0.9009;-0.3406;-48.8562;34.7400 
1642.057;0.0039;0.0186;0.9917;0.0000;0.1221;0.0000;0.9009;-0.3406;-48.8562;34.7300 
1642.067;0.0039;0.0186;0.9917;0.0000;0.1221;0.0000;0.9009;-0.3406;-48.8562;34.7300 
1642.067;0.0039;0.0186;0.9917;0.0000;0.1221;0.0000;0.9009;-0.3406;-48.8562;34.7600 
1642.067;0.0039;0.0186;0.9917;0.0000;0.1221;0.0000;0.9009;-0.3406;-48.8562;34.7600 
1642.067;0.0039;0.0186;0.9917;0.0000;0.1221;0.0000;0.9009;-0.3406;-48.8507;34.7200 
1642.096;0.0039;0.0186;0.9917;0.0000;0.1221;0.0000;0.9009;-0.3351;-48.8507;34.7200 
1642.096;0.0039;0.0186;0.9917;0.0000;0.1221;0.0000;0.9009;-0.3351;-48.8507;34.7200 
1642.116;0.0039;0.0186;0.9917;0.0000;0.1221;0.0000;0.9064;-0.3351;-48.8507;34.7700 
1642.116;0.0029;0.0195;0.9912;0.0000;0.0610;0.0000;0.9064;-0.3351;-48.8507;34.7700 
1642.116;0.0029;0.0195;0.9912;0.0000;0.0610;0.0000;0.9064;-0.3351;-48.8452;34.7500 
1642.116;0.0029;0.0195;0.9912;0.0000;0.0610;0.0000;0.9064;-0.3351;-48.8452;34.7500 
1642.116;0.0029;0.0195;0.9912;0.0000;0.0610;0.0000;0.9064;-0.3296;-48.8452;34.7900 
1642.116;0.0029;0.0195;0.9912;0.0000;0.0610;0.0000;0.9064;-0.3296;-48.8452;34.7900 
1642.136;0.0029;0.0195;0.9912;0.0000;0.0610;0.0000;0.9064;-0.3296;-48.8397;34.7800 
1642.136;0.0029;0.0195;0.9912;0.0000;0.0610;0.0000;0.9064;-0.3296;-48.8397;34.7800 
1642.256;0.0029;0.0195;0.9912;0.0000;0.0610;0.0000;0.9119;-0.3296;-48.8397;34.7200 
1642.256;0.0029;0.0156;0.9922;-0.1221;0.0000;0.0000;0.9064;-0.3296;-48.8397;34.7200 
1642.256;0.0029;0.0156;0.9922;-0.1221;0.0000;0.0000;0.9064;-0.3296;-48.8342;34.8200 
1642.256;0.0029;0.0156;0.9922;-0.1221;0.0000;0.0000;0.9064;-0.3296;-48.8342;34.8200 
1642.256;0.0029;0.0156;0.9922;-0.1221;0.0000;0.0000;0.9064;-0.3296;-48.8342;34.8100 
1642.256;0.0029;0.0156;0.9922;-0.1221;0.0000;0.0000;0.9064;-0.3241;-48.8342;34.8100 
1642.266;0.0029;0.0156;0.9922;-0.1221;0.0000;0.0000;0.9064;-0.3241;-48.8342;34.7200 
1642.266;0.0029;0.0156;0.9922;-0.1221;0.0000;0.0000;0.9064;-0.3241;-48.8342;34.7200 
1642.266;0.0029;0.0156;0.9922;-0.1221;0.0000;0.0000;0.9064;-0.3241;-48.8287;34.7200 
1642.266;0.0034;0.0166;0.9917;-0.1831;0.0000;0.0000;0.9064;-0.3241;-48.8287;34.8400 
1642.266;0.0034;0.0166;0.9917;-0.1831;0.0000;0.0000;0.9009;-0.3241;-48.8287;34.8400 
1642.266;0.0034;0.0166;0.9917;-0.1831;0.0000;0.0000;0.9009;-0.3241;-48.8232;34.7700 
1642.266;0.0034;0.0166;0.9917;-0.1831;0.0000;0.0000;0.9009;-0.3241;-48.8232;34.7700 
1642.266;0.0034;0.0166;0.9917;-0.1831;0.0000;0.0000;0.9009;-0.3241;-48.8232;34.7800 
1642.266;0.0034;0.0166;0.9917;-0.1831;0.0000;0.0000;0.9009;-0.3241;-48.8177;34.7800 
1642.266;0.0034;0.0166;0.9917;-0.1831;0.0000;0.0000;0.9009;-0.3241;-48.8177;34.7800 
1642.266;0.0034;0.0166;0.9917;-0.1831;0.0000;0.0000;0.9009;-0.3241;-48.8177;34.7800 
1642.266;0.0054;0.0176;0.9932;-0.1221;-0.0610;0.0000;0.9009;-0.3241;-48.8123;34.7900 
1642.266;0.0054;0.0176;0.9932;-0.1221;-0.0610;0.0000;0.9009;-0.3241;-48.8123;34.7900 
1642.266;0.0054;0.0176;0.9932;-0.1221;-0.0610;0.0000;0.8954;-0.3241;-48.8123;34.7700 
1642.266;0.0054;0.0176;0.9932;-0.1221;-0.0610;0.0000;0.8954;-0.3241;-48.8123;34.7700 
1642.266;0.0054;0.0176;0.9932;-0.1221;-0.0610;0.0000;0.8954;-0.3241;-48.8123;34.8100 
1642.266;0.0054;0.0176;0.9932;-0.1221;-0.0610;0.0000;0.8954;-0.3241;-48.8123;34.8100 
1642.266;0.0054;0.0176;0.9932;-0.1221;-0.0610;0.0000;0.8954;-0.3241;-48.8123;34.7600 
1642.266;0.0054;0.0176;0.9932;-0.1221;-0.0610;0.0000;0.8954;-0.3241;-48.8123;34.7600 
1642.266;0.0063;0.0151;0.9937;-0.1221;-0.1221;-0.0610;0.8954;-0.3241;-48.8123;34.7600 
1642.266;0.0063;0.0151;0.9937;-0.1221;-0.1221;-0.0610;0.8954;-0.3241;-48.8123;34.7800 
1642.266;0.0063;0.0151;0.9937;-0.1221;-0.1221;-0.0610;0.8954;-0.3241;-48.8123;34.7800 
1642.266;0.0063;0.0151;0.9937;-0.1221;-0.1221;-0.0610;0.8954;-0.3241;-48.8177;34.7500 
1642.286;0.0063;0.0151;0.9937;-0.1221;-0.1221;-0.0610;0.8954;-0.3296;-48.8177;34.7500 
1642.286;0.0063;0.0151;0.9937;-0.1221;-0.1221;-0.0610;0.8954;-0.3296;-48.8232;34.8100 
1642.286;0.0063;0.0151;0.9937;-0.1221;-0.1221;-0.0610;0.8899;-0.3296;-48.8232;34.8100 
1642.286;0.0063;0.0151;0.9937;-0.1221;-0.1221;-0.0610;0.8899;-0.3296;-48.8232;34.8100 
1642.296;0.0068;0.0161;0.9937;-0.0610;-0.1221;-0.0610;0.8899;-0.3296;-48.8287;34.8100 
1642.296;0.0068;0.0161;0.9937;-0.0610;-0.1221;-0.0610;0.8899;-0.3296;-48.8287;34.7400 
1642.306;0.0068;0.0161;0.9937;-0.0610;-0.1221;-0.0610;0.8899;-0.3296;-48.8342;34.7400 
1642.306;0.0068;0.0161;0.9937;-0.0610;-0.1221;-0.0610;0.8899;-0.3351;-48.8342;34.7600 
1642.316;0.0068;0.0161;0.9937;-0.0610;-0.1221;-0.0610;0.8899;-0.3351;-48.8342;34.7600 
1642.316;0.0068;0.0161;0.9937;-0.0610;-0.1221;-0.0610;0.8899;-0.3351;-48.8397;34.8200 
1642.336;0.0068;0.0161;0.9937;-0.0610;-0.1221;-0.0610;0.8899;-0.3351;-48.8397;34.8200 
1642.336;0.0068;0.0161;0.9937;-0.0610;-0.1221;-0.0610;0.8899;-0.3351;-48.8397;34.8200 
1642.336;0.0093;0.0176;0.9946;0.0000;-0.0610;-0.0610;0.8899;-0.3351;-48.8397;34.7700 
1642.336;0.0093;0.0176;0.9946;0.0000;-0.0610;-0.0610;0.8899;-0.3351;-48.8397;34.7700 
1642.346;0.0093;0.0176;0.9946;0.0000;-0.0610;-0.0610;0.8899;-0.3406;-48.8397;34.7400 
1642.356;0.0093;0.0176;0.9946;0.0000;-0.0610;-0.0610;0.8899;-0.3406;-48.8397;34.7400 
1642.356;0.0093;0.0176;0.9946;0.0000;-0.0610;-0.0610;0.8899;-0.3406;-48.8452;34.7800 
1642.446;0.0093;0.0176;0.9946;0.0000;-0.0610;-0.0610;0.8899;-0.3406;-48.8452;34.7800 
1642.446;0.0093;0.0176;0.9946;0.0000;-0.0610;-0.0610;0.8954;-0.3406;-48.8452;34.7800 
1642.466;0.0093;0.0176;0.9946;0.0000;-0.0610;-0.0610;0.8954;-0.3406;-48.8452;34.7800 
1642.466;0.0063;0.0137;0.9932;0.0000;0.0000;-0.0610;0.8954;-0.3406;-48.8452;34.7600 
1642.466;0.0063;0.0137;0.9932;0.0000;0.0000;-0.0610;0.8899;-0.3406;-48.8507;34.7600 
1642.466;0.0063;0.0137;0.9932;0.0000;0.0000;-0.0610;0.8899;-0.3406;-48.8507;34.7800 
1642.466;0.0063;0.0137;0.9932;0.0000;0.0000;-0.0610;0.8899;-0.3406;-48.8507;34.7800 
1642.466;0.0063;0.0137;0.9932;0.0000;0.0000;-0.0610;0.8899;-0.3406;-48.8507;34.7600 
1642.466;0.0063;0.0137;0.9932;0.0000;0.0000;-0.0610;0.8899;-0.3406;-48.8562;34.7600 
1642.466;0.0063;0.0137;0.9932;0.0000;0.0000;-0.0610;0.8899;-0.3406;-48.8562;34.8000 
1642.466;0.0063;0.0137;0.9932;0.0000;0.0000;-0.0610;0.8899;-0.3406;-48.8562;34.8000 
1642.466;0.0083;0.0151;0.9937;0.0000;0.0610;0.0000;0.8899;-0.3461;-48.8617;34.8000 
1642.466;0.0083;0.0151;0.9937;0.0000;0.0610;0.0000;0.8899;-0.3461;-48.8617;34.7800 
1642.466;0.0083;0.0151;0.9937;0.0000;0.0610;0.0000;0.8899;-0.3461;-48.8617;34.7800 
1642.466;0.0083;0.0151;0.9937;0.0000;0.0610;0.0000;0.8899;-0.3461;-48.8617;34.8400 
1642.466;0.0083;0.0151;0.9937;0.0000;0.0610;0.0000;0.8899;-0.3461;-48.8617;34.8400 
1642.466;0.0083;0.0151;0.9937;0.0000;0.0610;0.0000;0.8899;-0.3461;-48.8617;34.8200 
1642.466;0.0083;0.0151;0.9937;0.0000;0.0610;0.0000;0.8899;-0.3461;-48.8617;34.8200 
1642.466;0.0083;0.0151;0.9937;0.0000;0.0610;0.0000;0.8899;-0.3461;-48.8617;34.7700 
1642.466;0.0054;0.0146;0.9917;0.0610;0.1221;0.0000;0.8899;-0.3406;-48.8672;34.7700 
1642.486;0.0054;0.0146;0.9917;0.0610;0.1221;0.0000;0.8899;-0.3406;-48.8672;34.7900 
1642.486;0.0054;0.0146;0.9917;0.0610;0.1221;0.0000;0.8899;-0.3406;-48.8672;34.7900 
1642.506;0.0054;0.0146;0.9917;0.0610;0.1221;0.0000;0.8899;-0.3406;-48.8672;34.7400 
1642.506;0.0054;0.0146;0.9917;0.0610;0.1221;0.0000;0.8899;-0.3406;-48.8672;34.7400 
1642.526;0.0054;0.0146;0.9917;0.0610;0.1221;0.0000;0.8899;-0.3406;-48.8727;34.7500 
1642.526;0.0054;0.0146;0.9917;0.0610;0.1221;0.0000;0.8899;-0.3406;-48.8727;34.7500 
1642.526;0.0054;0.0146;0.9917;0.0610;0.1221;0.0000;0.8899;-0.3406;-48.8727;34.6900 
1642.526;0.0054;0.0151;0.9917;0.1221;0.1831;0.0000;0.8899;-0.3351;-48.8727;34.6900 
1642.526;0.0054;0.0151;0.9917;0.1221;0.1831;0.0000;0.8954;-0.3351;-48.8727;34.6900 
1642.526;0.0054;0.0151;0.9917;0.1221;0.1831;0.0000;0.8954;-0.3351;-48.8782;34.7500 
1642.526;0.0054;0.0151;0.9917;0.1221;0.1831;0.0000;0.8954;-0.3351;-48.8782;34.7500 
1642.526;0.0054;0.0151;0.9917;0.1221;0.1831;0.0000;0.8954;-0.3351;-48.8782;34.8300 
1642.526;0.0054;0.0151;0.9917;0.1221;0.1831;0.0000;0.8954;-0.3296;-48.8782;34.8300 
1642.536;0.0054;0.0151;0.9917;0.1221;0.1831;0.0000;0.8954;-0.3296;-48.8782;34.8400 
1642.536;0.0054;0.0151;0.9917;0.1221;0.1831;0.0000;0.8954;-0.3296;-48.8782;34.8400 
1642.546;0.0039;0.0181;0.9907;0.1221;0.1831;0.0000;0.8954;-0.3296;-48.8782;34.7800 
1642.546;0.0039;0.0181;0.9907;0.1221;0.1831;0.0000;0.9009;-0.3296;-48.8782;34.7800 
1642.546;0.0039;0.0181;0.9907;0.1221;0.1831;0.0000;0.9009;-0.3241;-48.8782;34.7800 
1642.546;0.0039;0.0181;0.9907;0.1221;0.1831;0.0000;0.9009;-0.3241;-48.8782;34.7800 
1642.556;0.0039;0.0181;0.9907;0.1221;0.1831;0.0000;0.9009;-0.3241;-48.8727;34.7500 
1642.556;0.0039;0.0181;0.9907;0.1221;0.1831;0.0000;0.9009;-0.3241;-48.8727;34.7500 
1642.646;0.0039;0.0181;0.9907;0.1221;0.1831;0.0000;0.9064;-0.3241;-48.8727;34.7100 
1642.646;0.0039;0.0181;0.9907;0.1221;0.1831;0.0000;0.9064;-0.3186;-48.8727;34.7100 
1642.646;0.0039;0.0186;0.9912;0.1221;0.1221;0.0000;0.9064;-0.3186;-48.8727;34.7900 
1642.646;0.0039;0.0186;0.9912;0.1221;0.1221;0.0000;0.9064;-0.3186;-48.8672;34.7900 
1642.656;0.0039;0.0186;0.9912;0.1221;0.1221;0.0000;0.9064;-0.3186;-48.8672;34.7900 
1642.656;0.0039;0.0186;0.9912;0.1221;0.1221;0.0000;0.9119;-0.3186;-48.8672;34.7400 
1642.656;0.0039;0.0186;0.9912;0.1221;0.1221;0.0000;0.9119;-0.3186;-48.8672;34.7400 
1642.656;0.0039;0.0186;0.9912;0.1221;0.1221;0.0000;0.9119;-0.3131;-48.8672;34.8100 
1642.656;0.0039;0.0186;0.9912;0.1221;0.1221;0.0000;0.9119;-0.3131;-48.8617;34.8100 
1642.656;0.0039;0.0186;0.9912;0.1221;0.1221;0.0000;0.9119;-0.3131;-48.8617;34.7700 
1642.656;0.0039;0.0186;0.9912;0.0610;0.0610;0.0000;0.9119;-0.3131;-48.8617;34.7700 
1642.656;0.0039;0.0186;0.9912;0.0610;0.0610;0.0000;0.9174;-0.3131;-48.8617;34.8200 
1642.656;0.0039;0.0186;0.9912;0.0610;0.0610;0.0000;0.9174;-0.3131;-48.8562;34.8200 
1642.656;0.0039;0.0186;0.9912;0.0610;0.0610;0.0000;0.9174;-0.3131;-48.8562;34.7900 
1642.656;0.0039;0.0186;0.9912;0.0610;0.0610;0.0000;0.9174;-0.3131;-48.8562;34.7900 
1642.656;0.0039;0.0186;0.9912;0.0610;0.0610;0.0000;0.9174;-0.3076;-48.8562;34.7600 
1642.656;0.0039;0.0186;0.9912;0.0610;0.0610;0.0000;0.9174;-0.3076;-48.8562;34.7600 
1642.656;0.0039;0.0186;0.9912;0.0610;0.0610;0.0000;0.9174;-0.3076;-48.8562;34.7900 
1642.656;0.0049;0.0186;0.9922;0.0000;0.0000;0.0000;0.9229;-0.3076;-48.8562;34.7900 
1642.656;0.0049;0.0186;0.9922;0.0000;0.0000;0.0000;0.9229;-0.3076;-48.8562;34.7900 
1642.666;0.0049;0.0186;0.9922;0.0000;0.0000;0.0000;0.9229;-0.3076;-48.8562;34.7000 
1642.676;0.0049;0.0186;0.9922;0.0000;0.0000;0.0000;0.9229;-0.3076;-48.8562;34.7000 
1642.676;0.0049;0.0186;0.9922;0.0000;0.0000;0.0000;0.9229;-0.3076;-48.8562;34.7300 
1642.696;0.0049;0.0186;0.9922;0.0000;0.0000;0.0000;0.9229;-0.3076;-48.8562;34.7300 
1642.696;0.0049;0.0186;0.9922;0.0000;0.0000;0.0000;0.9229;-0.3076;-48.8562;34.8400 
1642.696;0.0049;0.0186;0.9922;0.0000;0.0000;0.0000;0.9229;-0.3076;-48.8562;34.8400 
1642.696;0.0054;0.0186;0.9922;0.0000;0.0000;0.0000;0.9229;-0.3076;-48.8617;34.8100 
1642.706;0.0054;0.0186;0.9922;0.0000;0.0000;0.0000;0.9229;-0.3076;-48.8617;34.8100 
1642.706;0.0054;0.0186;0.9922;0.0000;0.0000;0.0000;0.9229;-0.3076;-48.8617;34.7600 
1642.726;0.0054;0.0186;0.9922;0.0000;0.0000;0.0000;0.9283;-0.3076;-48.8617;34.7600 
1642.726;0.0054;0.0186;0.9922;0.0000;0.0000;0.0000;0.9283;-0.3076;-48.8617;34.8100 
1642.746;0.0054;0.0186;0.9922;0.0000;0.0000;0.0000;0.9283;-0.3076;-48.8617;34.8100 
1642.746;0.0054;0.0186;0.9922;0.0000;0.0000;0.0000;0.9283;-0.3076;-48.8617;34.7700 
1642.846;0.0054;0.0186;0.9922;0.0000;0.0000;0.0000;0.9283;-0.3076;-48.8617;34.7700 
1642.846;0.0044;0.0171;0.9917;-0.1221;-0.0610;0.0000;0.9283;-0.3076;-48.8617;34.8100 
1642.846;0.0044;0.0171;0.9917;-0.1221;-0.0610;0.0000;0.9283;-0.3076;-48.8617;34.8100 
1642.846;0.0044;0.0171;0.9917;-0.1221;-0.0610;0.0000;0.9283;-0.3076;-48.8617;34.8100 
1642.846;0.0044;0.0171;0.9917;-0.1221;-0.0610;0.0000;0.9283;-0.3076;-48.8617;34.7700 
1642.846;0.0044;0.0171;0.9917;-0.1221;-0.0610;0.0000;0.9229;-0.3076;-48.8617;34.7700 
1642.866;0.0044;0.0171;0.9917;-0.1221;-0.0610;0.0000;0.9229;-0.3076;-48.8617;34.7600 
1642.866;0.0044;0.0171;0.9917;-0.1221;-0.0610;0.0000;0.9229;-0.3076;-48.8672;34.7600 
1642.866;0.0044;0.0171;0.9917;-0.1221;-0.0610;0.0000;0.9229;-0.3076;-48.8672;34.7600 
1642.866;0.0063;0.0166;0.9932;-0.1221;-0.0610;0.0000;0.9229;-0.3076;-48.8672;34.7600 
1642.866;0.0063;0.0166;0.9932;-0.1221;-0.0610;0.0000;0.9229;-0.3076;-48.8672;34.8000 
1642.866;0.0063;0.0166;0.9932;-0.1221;-0.0610;0.0000;0.9229;-0.3131;-48.8672;34.8000 
1642.866;0.0063;0.0166;0.9932;-0.1221;-0.0610;0.0000;0.9229;-0.3131;-48.8672;34.7500 
1642.866;0.0063;0.0166;0.9932;-0.1221;-0.0610;0.0000;0.9229;-0.3131;-48.8672;34.7500 
1642.866;0.0063;0.0166;0.9932;-0.1221;-0.0610;0.0000;0.9229;-0.3131;-48.8672;34.7500 
1642.866;0.0063;0.0166;0.9932;-0.1221;-0.0610;0.0000;0.9229;-0.3131;-48.8672;34.7500 
1642.866;0.0063;0.0166;0.9932;-0.1221;-0.0610;0.0000;0.9229;-0.3131;-48.8672;34.7500 
1642.866;0.0059;0.0151;0.9927;-0.1221;0.0000;0.0000;0.9174;-0.3131;-48.8672;34.7500 
1642.866;0.0059;0.0151;0.9927;-0.1221;0.0000;0.0000;0.9174;-0.3131;-48.8672;34.7200 
1642.866;0.0059;0.0151;0.9927;-0.1221;0.0000;0.0000;0.9174;-0.3131;-48.8672;34.7200 
1642.866;0.0059;0.0151;0.9927;-0.1221;0.0000;0.0000;0.9174;-0.3131;-48.8672;34.7200 
1642.866;0.0059;0.0151;0.9927;-0.1221;0.0000;0.0000;0.9174;-0.3131;-48.8617;34.7600 
1642.866;0.0059;0.0151;0.9927;-0.1221;0.0000;0.0000;0.9174;-0.3131;-48.8617;34.7600 
1642.866;0.0059;0.0151;0.9927;-0.1221;0.0000;0.0000;0.9174;-0.3131;-48.8617;34.8100 
1642.866;0.0059;0.0151;0.9927;-0.1221;0.0000;0.0000;0.9119;-0.3131;-48.8562;34.8100 
1642.866;-0.2334;0.0386;1.0396;-0.0610;0.0610;0.0000;0.9174;-0.2747;-48.8562;34.7900 
1642.866;-0.2334;0.0386;1.0396;-0.0610;0.0610;0.0000;0.9229;-0.2362;-48.8507;34.7900 
1642.866;-0.2334;0.0386;1.0396;-0.0610;0.0610;0.0000;0.9229;-0.1978;-48.8507;34.8000 
1642.866;-0.2334;0.0386;1.0396;-0.0610;0.0610;0.0000;0.9283;-0.1593;-48.8452;34.8000 
1642.886;-0.2334;0.0386;1.0396;-0.0610;0.0610;0.0000;0.9283;-0.1208;-48.8452;34.8400 
1642.886;-0.2334;0.0386;1.0396;-0.0610;0.0610;0.0000;0.9338;-0.0824;-48.8397;34.8400 
1642.886;-0.2334;0.0386;1.0396;-0.0610;0.0610;0.0000;0.9338;-0.0439;-48.8397;34.8100 
1642.886;-0.2334;0.0386;1.0396;-0.0610;0.0610;0.0000;0.9393;-0.0055;-48.8342;34.8100 
1642.896;-0.6206;0.0850;1.0132;0.0000;0.9766;0.4883;0.9448;0.0879;-48.8232;34.7300 
1642.896;-0.6206;0.0850;1.0132;0.0000;0.9766;0.4883;0.9503;0.1868;-48.8068;34.7300 
1642.916;-0.6206;0.0850;1.0132;0.0000;0.9766;0.4883;0.9558;0.2856;-48.7903;34.8100 
1642.916;-0.6206;0.0850;1.0132;0.0000;0.9766;0.4883;0.9668;0.3845;-48.7738;34.8100 
1642.916;-0.6206;0.0850;1.0132;0.0000;0.9766;0.4883;0.9723;0.4779;-48.7628;34.8100 
1642.916;-0.6206;0.0850;1.0132;0.0000;0.9766;0.4883;0.9778;0.5768;-48.7463;34.7800 
1642.926;-0.6206;0.0850;1.0132;0.0000;0.9766;0.4883;0.9833;0.6702;-48.7299;34.7800 
1642.926;-0.6206;0.0850;1.0132;0.0000;0.9766;0.4883;0.9943;0.7690;-48.7189;34.8200 
1642.936;-1.2026;0.1958;0.9727;0.1221;2.9907;2.0142;0.9998;0.9283;-48.6749;34.8200 
1642.936;-1.2026;0.1958;0.9727;0.1221;2.9907;2.0142;1.0052;1.0931;-48.6310;34.7600 
1642.956;-1.2026;0.1958;0.9727;0.1221;2.9907;2.0142;1.0162;1.2524;-48.5870;34.7600 
1642.956;-1.2026;0.1958;0.9727;0.1221;2.9907;2.0142;1.0217;1.4117;-48.5486;34.8000 
1643.046;-1.2026;0.1958;0.9727;0.1221;2.9907;2.0142;1.0327;1.5710;-48.5046;34.8000 
1643.046;-1.2026;0.1958;0.9727;0.1221;2.9907;2.0142;1.0382;1.7303;-48.4607;34.7600 
1643.046;-1.2026;0.1958;0.9727;0.1221;2.9907;2.0142;1.0492;1.8896;-48.4222;34.7600 
1643.046;-1.2026;0.1958;0.9727;0.1221;2.9907;2.0142;1.0547;2.0490;-48.3783;34.8000 
1643.046;-1.8066;0.3027;0.9453;0.3052;4.6997;4.2725;1.0547;2.2412;-48.3069;34.8000 
1643.046;-1.8066;0.3027;0.9453;0.3052;4.6997;4.2725;1.0602;2.4390;-48.2355;34.7900 
1643.056;-1.8066;0.3027;0.9453;0.3052;4.6997;4.2725;1.0602;2.6367;-48.1641;34.7900 
1643.056;-1.8066;0.3027;0.9453;0.3052;4.6997;4.2725;1.0602;2.8290;-48.0927;34.7900 
1643.056;-1.8066;0.3027;0.9453;0.3052;4.6997;4.2725;1.0602;3.0212;-48.0157;34.6900 
1643.056;-1.8066;0.3027;0.9453;0.3052;4.6997;4.2725;1.0602;3.2190;-47.9443;34.6900 
1643.056;-1.8066;0.3027;0.9453;0.3052;4.6997;4.2725;1.0602;3.4113;-47.8674;34.7400 
1643.056;-1.8066;0.3027;0.9453;0.3052;4.6997;4.2725;1.0602;3.6035;-47.7960;34.7400 
1643.056;-2.2627;0.4312;0.9072;0.2441;4.8828;6.0425;1.0547;3.8123;-47.6971;34.7900 
1643.056;-2.2627;0.4312;0.9072;0.2441;4.8828;6.0425;1.0492;4.0155;-47.6038;34.7900 
1643.056;-2.2627;0.4312;0.9072;0.2441;4.8828;6.0425;1.0492;4.2242;-47.5049;34.7400 
1643.056;-2.2627;0.4312;0.9072;0.2441;4.8828;6.0425;1.0437;4.4330;-47.4115;34.7400 
1643.056;-2.2627;0.4312;0.9072;0.2441;4.8828;6.0425;1.0437;4.6362;-47.3181;34.8200 
1643.056;-2.2627;0.4312;0.9072;0.2441;4.8828;6.0425;1.0382;4.8450;-47.2247;34.8200 
1643.056;-2.2627;0.4312;0.9072;0.2441;4.8828;6.0425;1.0382;5.0482;-47.1313;34.7900 
1643.056;-2.2627;0.4312;0.9072;0.2441;4.8828;6.0425;1.0382;5.2515;-47.0380;34.7900 
1643.056;-2.3052;0.4512;0.8677;0.0000;3.0518;6.3477;1.0327;5.4492;-46.9391;34.7200 
1643.066;-2.3052;0.4512;0.8677;0.0000;3.0518;6.3477;1.0327;5.6470;-46.8402;34.7200 
1643.066;-2.3052;0.4512;0.8677;0.0000;3.0518;6.3477;1.0272;5.8447;-46.7468;34.8100 
1643.086;-2.3052;0.4512;0.8677;0.0000;3.0518;6.3477;1.0272;6.0370;-46.6479;34.8100 
1643.086;-2.3052;0.4512;0.8677;0.0000;3.0518;6.3477;1.0217;6.2347;-46.5491;34.8100 
1643.086;-2.3052;0.4512;0.8677;0.0000;3.0518;6.3477;1.0217;6.4325;-46.4502;34.7800 
1643.086;-2.3052;0.4512;0.8677;0.0000;3.0518;6.3477;1.0162;6.6248;-46.3513;34.7800 
1643.096;-2.3052;0.4512;0.8677;0.0000;3.0518;6.3477;1.0162;6.8225;-46.2524;34.7900 
1643.096;-2.0254;0.4072;0.7939;-0.3662;-0.7324;5.4321;1.0107;6.9928;-46.1591;34.7900 
1643.106;-2.0254;0.4072;0.7939;-0.3662;-0.7324;5.4321;1.0107;7.1631;-46.0712;34.7900 
1643.106;-2.0254;0.4072;0.7939;-0.3662;-0.7324;5.4321;1.0107;7.3389;-45.9778;34.7900 
1643.116;-2.0254;0.4072;0.7939;-0.3662;-0.7324;5.4321;1.0107;7.5092;-45.8899;34.7900 
1643.116;-2.0254;0.4072;0.7939;-0.3662;-0.7324;5.4321;1.0107;7.6794;-45.7965;34.7900 
1643.136;-2.0254;0.4072;0.7939;-0.3662;-0.7324;5.4321;1.0107;7.8552;-45.7086;34.8300 
1643.136;-2.0254;0.4072;0.7939;-0.3662;-0.7324;5.4321;1.0052;8.0255;-45.6152;34.8300 
1643.136;-2.0254;0.4072;0.7939;-0.3662;-0.7324;5.4321;1.0052;8.1958;-45.5219;34.7800 
1643.136;-1.4380;0.2769;0.6230;-0.7324;-5.3101;4.6387;1.0052;8.3331;-45.4340;34.7800 
1643.146;-1.4380;0.2769;0.6230;-0.7324;-5.3101;4.6387;0.9998;8.4760;-45.3516;34.7700 
1643.146;-1.4380;0.2769;0.6230;-0.7324;-5.3101;4.6387;0.9998;8.6188;-45.2692;34.7700 
1643.246;-1.4380;0.2769;0.6230;-0.7324;-5.3101;4.6387;0.9998;8.7561;-45.1813;34.8300 
1643.246;-1.4380;0.2769;0.6230;-0.7324;-5.3101;4.6387;0.9943;8.8989;-45.0989;34.8300 
1643.246;-1.4380;0.2769;0.6230;-0.7324;-5.3101;4.6387;0.9943;9.0363;-45.0110;34.8300 
1643.246;-1.4380;0.2769;0.6230;-0.7324;-5.3101;4.6387;0.9943;9.1791;-44.9286;34.7300 
1643.266;-1.4380;0.2769;0.6230;-0.7324;-5.3101;4.6387;0.9943;9.3164;-44.8462;34.7300 
1643.266;-0.7222;0.1196;0.3989;-0.7324;-9.2773;6.0425;0.9943;9.4208;-44.7638;34.7300 
1643.266;-0.7222;0.1196;0.3989;-0.7324;-9.2773;6.0425;0.9998;9.5251;-44.6869;34.7300 
1643.266;-0.7222;0.1196;0.3989;-0.7324;-9.2773;6.0425;1.0052;9.6295;-44.6100;34.7200 
1643.266;-0.7222;0.1196;0.3989;-0.7324;-9.2773;6.0425;1.0052;9.7339;-44.5276;34.7200 
1643.266;-0.7222;0.1196;0.3989;-0.7324;-9.2773;6.0425;1.0107;9.8328;-44.4452;34.7900 
1643.266;-0.7222;0.1196;0.3989;-0.7324;-9.2773;6.0425;1.0107;9.9371;-44.3628;34.7900 
1643.266;-0.7222;0.1196;0.3989;-0.7324;-9.2773;6.0425;1.0107;10.0415;-44.2804;34.7400 
1643.266;-0.7222;0.1196;0.3989;-0.7324;-9.2773;6.0425;1.0162;10.1404;-44.1980;34.7400 
1643.266;-0.1147;-0.0151;0.2085;-0.5493;-12.2681;10.9253;1.0052;10.1349;-44.1376;34.7600 
1643.266;-0.1147;-0.0151;0.2085;-0.5493;-12.2681;10.9253;0.9998;10.1294;-44.0826;34.7600 
1643.266;-0.1147;-0.0151;0.2085;-0.5493;-12.2681;10.9253;0.9888;10.1239;-44.0222;34.7600 
1643.266;-0.1147;-0.0151;0.2085;-0.5493;-12.2681;10.9253;0.9778;10.1129;-43.9618;34.7600 
1643.266;-0.1147;-0.0151;0.2085;-0.5493;-12.2681;10.9253;0.9723;10.1074;-43.9014;34.7800 
1643.266;-0.1147;-0.0151;0.2085;-0.5493;-12.2681;10.9253;0.9613;10.1019;-43.8409;34.7800 
1643.266;-0.1147;-0.0151;0.2085;-0.5493;-12.2681;10.9253;0.9558;10.0964;-43.7805;34.7800 
1643.266;-0.1147;-0.0151;0.2085;-0.5493;-12.2681;10.9253;0.9448;10.0909;-43.7146;34.7500 
1643.266;0.2852;-0.1084;0.0894;-0.3052;-14.0381;19.1040;0.9174;9.7943;-43.5883;34.7500 
1643.266;0.2852;-0.1084;0.0894;-0.3052;-14.0381;19.1040;0.8844;9.4977;-43.4619;34.7500 
1643.276;0.2852;-0.1084;0.0894;-0.3052;-14.0381;19.1040;0.8569;9.2010;-43.3301;34.7500 
1643.276;0.2852;-0.1084;0.0894;-0.3052;-14.0381;19.1040;0.8240;8.9099;-43.1982;34.7200 
1643.276;0.2852;-0.1084;0.0894;-0.3052;-14.0381;19.1040;0.7965;8.6133;-43.0664;34.7200 
1643.276;0.2852;-0.1084;0.0894;-0.3052;-14.0381;19.1040;0.7690;8.3221;-42.9291;34.7300 
1643.296;0.2852;-0.1084;0.0894;-0.3052;-14.0381;19.1040;0.7416;8.0255;-42.7917;34.7300 
1643.296;0.2852;-0.1084;0.0894;-0.3052;-14.0381;19.1040;0.7141;7.7344;-42.6544;34.8100 
1643.296;0.4756;-0.1621;0.0449;-0.1831;-13.7329;29.6631;0.7416;7.4158;-42.4237;34.8100 
1643.296;0.4756;-0.1621;0.0449;-0.1831;-13.7329;29.6631;0.7635;7.0972;-42.1875;34.7200 
1643.316;0.4756;-0.1621;0.0449;-0.1831;-13.7329;29.6631;0.7910;6.7786;-41.9568;34.7200 
1643.316;0.4756;-0.1621;0.0449;-0.1831;-13.7329;29.6631;0.8130;6.4655;-41.7206;34.7500 
1643.336;0.4756;-0.1621;0.0449;-0.1831;-13.7329;29.6631;0.8350;6.1469;-41.4899;34.7500 
1643.336;0.4756;-0.1621;0.0449;-0.1831;-13.7329;29.6631;0.8569;5.8282;-41.2592;34.7500 
1643.336;0.4756;-0.1621;0.0449;-0.1831;-13.7329;29.6631;0.8734;5.5151;-41.0229;34.8000 
1643.336;0.4756;-0.1621;0.0449;-0.1831;-13.7329;29.6631;0.8954;5.2020;-40.7922;34.8000 
1643.346;0.5078;-0.1870;0.0605;-0.9155;-11.2915;41.6260;0.9064;4.8999;-40.5066;34.7500 
1643.356;0.5078;-0.1870;0.0605;-0.9155;-11.2915;41.6260;0.9119;4.5978;-40.2155;34.7500 
1643.356;0.5078;-0.1870;0.0605;-0.9155;-11.2915;41.6260;0.9174;4.3011;-39.9298;34.7400 
1643.356;0.5078;-0.1870;0.0605;-0.9155;-11.2915;41.6260;0.9229;4.0045;-39.6387;34.7400 
1643.356;0.5078;-0.1870;0.0605;-0.9155;-11.2915;41.6260;0.9283;3.7024;-39.3530;34.7500 
1643.476;0.5078;-0.1870;0.0605;-0.9155;-11.2915;41.6260;0.9338;3.4058;-39.0619;34.7500 
1643.476;0.5078;-0.1870;0.0605;-0.9155;-11.2915;41.6260;0.9393;3.1091;-38.7762;34.7800 
1643.496;0.5078;-0.1870;0.0605;-0.9155;-11.2915;41.6260;0.9393;2.8125;-38.4851;34.7800 
1643.496;0.4492;-0.2031;0.1284;-2.8687;-6.9580;54.3823;0.8954;2.5598;-38.1555;34.7900 
1643.496;0.4492;-0.2031;0.1284;-2.8687;-6.9580;54.3823;0.8459;2.3126;-37.8259;34.7900 
1643.496;0.4492;-0.2031;0.1284;-2.8687;-6.9580;54.3823;0.8020;2.0599;-37.5018;34.7700 
1643.496;0.4492;-0.2031;0.1284;-2.8687;-6.9580;54.3823;0.7526;1.8127;-37.1722;34.7700 
1643.496;0.4492;-0.2031;0.1284;-2.8687;-6.9580;54.3823;0.6976;1.5601;-36.8481;34.7900 
1643.496;0.4492;-0.2031;0.1284;-2.8687;-6.9580;54.3823;0.6482;1.3129;-36.5186;34.7900 
1643.496;0.4492;-0.2031;0.1284;-2.8687;-6.9580;54.3823;0.5933;1.0657;-36.1890;34.7900 
1643.496;0.4492;-0.2031;0.1284;-2.8687;-6.9580;54.3823;0.5438;0.8185;-35.8594;34.8000 
1643.496;0.3218;-0.3442;0.5254;-5.7373;-2.3193;66.8945;0.4285;0.7196;-35.5188;34.8000 
1643.496;0.3218;-0.3442;0.5254;-5.7373;-2.3193;66.8945;0.3131;0.6152;-35.1782;34.7200 
1643.496;0.3218;-0.3442;0.5254;-5.7373;-2.3193;66.8945;0.2032;0.5164;-34.8376;34.7200 
1643.496;0.3218;-0.3442;0.5254;-5.7373;-2.3193;66.8945;0.0879;0.4175;-34.5026;34.8400 
1643.496;0.3218;-0.3442;0.5254;-5.7373;-2.3193;66.8945;-0.0220;0.3186;-34.1620;34.8400 
1643.496;0.3218;-0.3442;0.5254;-5.7373;-2.3193;66.8945;-0.1373;0.2197;-33.8214;34.7100 
1643.496;0.3218;-0.3442;0.5254;-5.7373;-2.3193;66.8945;-0.2527;0.1263;-33.4863;34.7100 
1643.496;0.3218;-0.3442;0.5254;-5.7373;-2.3193;66.8945;-0.3680;0.0275;-33.1458;34.7900 
1643.496;0.2524;-0.3115;0.7388;-6.6528;0.3052;76.7822;-0.4669;-0.0165;-32.7612;34.7900 
1643.496;0.2524;-0.3115;0.7388;-6.6528;0.3052;76.7822;-0.5658;-0.0659;-32.3767;34.7600 
1643.496;0.2524;-0.3115;0.7388;-6.6528;0.3052;76.7822;-0.6647;-0.1099;-31.9922;34.7600 
1643.496;0.2524;-0.3115;0.7388;-6.6528;0.3052;76.7822;-0.7581;-0.1593;-31.6077;34.8100 
1643.496;0.2524;-0.3115;0.7388;-6.6528;0.3052;76.7822;-0.8569;-0.2032;-31.2177;34.8100 
1643.496;0.2524;-0.3115;0.7388;-6.6528;0.3052;76.7822;-0.9558;-0.2527;-30.8276;34.7600 
1643.496;0.2524;-0.3115;0.7388;-6.6528;0.3052;76.7822;-1.0492;-0.2966;-30.4376;34.7600 
1643.496;0.2524;-0.3115;0.7388;-6.6528;0.3052;76.7822;-1.1481;-0.3406;-30.0476;34.7600 
1643.496;0.2222;-0.4727;1.1616;-5.7983;0.4272;82.5806;-1.2415;-0.3625;-29.6301;34.7600 
1643.496;0.2222;-0.4727;1.1616;-5.7983;0.4272;82.5806;-1.3348;-0.3790;-29.2126;34.7600 
1643.506;0.2222;-0.4727;1.1616;-5.7983;0.4272;82.5806;-1.4282;-0.4010;-28.7952;34.7400 
1643.506;0.2222;-0.4727;1.1616;-5.7983;0.4272;82.5806;-1.5161;-0.4175;-28.3722;34.7400 
1643.516;0.2222;-0.4727;1.1616;-5.7983;0.4272;82.5806;-1.6095;-0.4340;-27.9492;34.7900 
1643.516;0.2222;-0.4727;1.1616;-5.7983;0.4272;82.5806;-1.7029;-0.4504;-27.5317;34.7900 
1643.526;0.2222;-0.4727;1.1616;-5.7983;0.4272;82.5806;-1.7963;-0.4669;-27.1143;34.8000 
1643.526;0.2222;-0.4727;1.1616;-5.7983;0.4272;82.5806;-1.8842;-0.4834;-26.6913;34.8000 
1643.556;0.2192;-0.3921;1.2998;-4.6997;-0.9766;84.5337;-1.9556;-0.4999;-26.2628;34.8200 
1643.556;0.2192;-0.3921;1.2998;-4.6997;-0.9766;84.5337;-2.0270;-0.5164;-25.8344;34.8200 
1643.576;0.2192;-0.3921;1.2998;-4.6997;-0.9766;84.5337;-2.0984;-0.5328;-25.4059;34.7900 
1643.576;0.2192;-0.3921;1.2998;-4.6997;-0.9766;84.5337;-2.1698;-0.5493;-24.9774;34.7900 
1643.576;0.2192;-0.3921;1.2998;-4.6997;-0.9766;84.5337;-2.2357;-0.5658;-24.5435;34.7900 
1643.576;0.2192;-0.3921;1.2998;-4.6997;-0.9766;84.5337;-2.3071;-0.5823;-24.1095;34.7900 
1643.586;0.2192;-0.3921;1.2998;-4.6997;-0.9766;84.5337;-2.3785;-0.5988;-23.6810;34.7800 
1643.586;0.2192;-0.3921;1.2998;-4.6997;-0.9766;84.5337;-2.4445;-0.6152;-23.2471;34.7800 
1643.586;0.2754;-0.3916;1.3022;-3.5400;-2.5635;83.6182;-2.5104;-0.6427;-22.8186;34.7800 
1643.586;0.2754;-0.3916;1.3022;-3.5400;-2.5635;83.6182;-2.5708;-0.6702;-22.3901;34.7700 
1643.586;0.2754;-0.3916;1.3022;-3.5400;-2.5635;83.6182;-2.6367;-0.6976;-21.9617;34.7700 
1643.586;0.2754;-0.3916;1.3022;-3.5400;-2.5635;83.6182;-2.6971;-0.7251;-21.5277;34.7700 
1643.676;0.2754;-0.3916;1.3022;-3.5400;-2.5635;83.6182;-2.7631;-0.7526;-21.1047;34.7700 
1643.676;0.2754;-0.3916;1.3022;-3.5400;-2.5635;83.6182;-2.8235;-0.7800;-20.6763;34.7400 
1643.686;0.2754;-0.3916;1.3022;-3.5400;-2.5635;83.6182;-2.8894;-0.8020;-20.2478;34.7400 
1643.686;0.2754;-0.3916;1.3022;-3.5400;-2.5635;83.6182;-2.9553;-0.8295;-19.8193;34.7800 
1643.686;0.3320;-0.3579;1.2222;-3.9063;-2.8687;81.8481;-3.0157;-0.8624;-19.4019;34.7800 
1643.686;0.3320;-0.3579;1.2222;-3.9063;-2.8687;81.8481;-3.0817;-0.9009;-18.9844;34.7300 
1643.686;0.3320;-0.3579;1.2222;-3.9063;-2.8687;81.8481;-3.1421;-0.9338;-18.5669;34.7300 
1643.686;0.3320;-0.3579;1.2222;-3.9063;-2.8687;81.8481;-3.2080;-0.9668;-18.1494;34.7400 
1643.686;0.3320;-0.3579;1.2222;-3.9063;-2.8687;81.8481;-3.2684;-0.9998;-17.7319;34.7400 
1643.686;0.3320;-0.3579;1.2222;-3.9063;-2.8687;81.8481;-3.3344;-1.0327;-17.3145;34.7400 
1643.686;0.3320;-0.3579;1.2222;-3.9063;-2.8687;81.8481;-3.4003;-1.0657;-16.8970;34.7400 
1643.686;0.3320;-0.3579;1.2222;-3.9063;-2.8687;81.8481;-3.4607;-1.0986;-16.4795;34.7400 
1643.686;0.3901;-0.3555;1.1206;-5.1270;-2.0142;80.1392;-3.5321;-1.1371;-16.0675;34.7500 
1643.686;0.3901;-0.3555;1.1206;-5.1270;-2.0142;80.1392;-3.6090;-1.1755;-15.6610;34.7500 
1643.686;0.3901;-0.3555;1.1206;-5.1270;-2.0142;80.1392;-3.6804;-1.2140;-15.2545;34.8400 
1643.686;0.3901;-0.3555;1.1206;-5.1270;-2.0142;80.1392;-3.7518;-1.2469;-14.8425;34.8400 
1643.686;0.3901;-0.3555;1.1206;-5.1270;-2.0142;80.1392;-3.8232;-1.2854;-14.4360;34.7900 
1643.686;0.3901;-0.3555;1.1206;-5.1270;-2.0142;80.1392;-3.9001;-1.3184;-14.0295;34.7900 
1643.686;0.3901;-0.3555;1.1206;-5.1270;-2.0142;80.1392;-3.9716;-1.3568;-13.6230;34.8000 
1643.696;0.3901;-0.3555;1.1206;-5.1270;-2.0142;80.1392;-4.0430;-1.3898;-13.2166;34.8000 
1643.696;0.5527;-0.4365;1.0425;-4.8828;-1.2817;76.9043;-4.1309;-1.4447;-12.8210;34.7500 
1643.696;0.5527;-0.4365;1.0425;-4.8828;-1.2817;76.9043;-4.2133;-1.4996;-12.4310;34.7500 
1643.696;0.5527;-0.4365;1.0425;-4.8828;-1.2817;76.9043;-4.2957;-1.5491;-12.0355;34.8000 
1643.706;0.5527;-0.4365;1.0425;-4.8828;-1.2817;76.9043;-4.3781;-1.6040;-11.6455;34.8000 
1643.706;0.5527;-0.4365;1.0425;-4.8828;-1.2817;76.9043;-4.4659;-1.6534;-11.2555;34.8200 
1643.716;0.5527;-0.4365;1.0425;-4.8828;-1.2817;76.9043;-4.5483;-1.7084;-10.8655;34.8200 
1643.716;0.5527;-0.4365;1.0425;-4.8828;-1.2817;76.9043;-4.6307;-1.7578;-10.4755;34.8900 
1643.726;0.5527;-0.4365;1.0425;-4.8828;-1.2817;76.9043;-4.7186;-1.8073;-10.0854;34.8900 
1643.726;0.6577;-0.5088;0.9712;-3.7231;-1.1597;70.8008;-4.8065;-1.8732;-9.7174;34.8900 
1643.736;0.6577;-0.5088;0.9712;-3.7231;-1.1597;70.8008;-4.8944;-1.9391;-9.3549;34.7300 
1643.736;0.6577;-0.5088;0.9712;-3.7231;-1.1597;70.8008;-4.9823;-2.0050;-8.9868;34.7300 
1643.746;0.6577;-0.5088;0.9712;-3.7231;-1.1597;70.8008;-5.0702;-2.0709;-8.6243;34.7800 
1643.746;0.6577;-0.5088;0.9712;-3.7231;-1.1597;70.8008;-5.1581;-2.1313;-8.2617;34.7800 
1643.756;0.6577;-0.5088;0.9712;-3.7231;-1.1597;70.8008;-5.2460;-2.1973;-7.8937;34.7200 
1643.756;0.6577;-0.5088;0.9712;-3.7231;-1.1597;70.8008;-5.3339;-2.2577;-7.5311;34.7200 
1643.766;0.6577;-0.5088;0.9712;-3.7231;-1.1597;70.8008;-5.4218;-2.3181;-7.1686;34.8500 
1643.766;0.7319;-0.5386;0.9565;-2.3193;-1.1597;61.6455;-5.5042;-2.3950;-6.8500;34.8500 
1643.786;0.7319;-0.5386;0.9565;-2.3193;-1.1597;61.6455;-5.5865;-2.4664;-6.5314;34.7600 
1643.786;0.7319;-0.5386;0.9565;-2.3193;-1.1597;61.6455;-5.6744;-2.5378;-6.2128;34.7600 
1643.876;0.7319;-0.5386;0.9565;-2.3193;-1.1597;61.6455;-5.7568;-2.6093;-5.8942;34.7600 
1643.876;0.7319;-0.5386;0.9565;-2.3193;-1.1597;61.6455;-5.8392;-2.6807;-5.5756;34.7600 
1643.876;0.7319;-0.5386;0.9565;-2.3193;-1.1597;61.6455;-5.9216;-2.7521;-5.2570;34.7300 
1643.876;0.7319;-0.5386;0.9565;-2.3193;-1.1597;61.6455;-6.0095;-2.8180;-4.9438;34.7300 
1643.896;0.7319;-0.5386;0.9565;-2.3193;-1.1597;61.6455;-6.0974;-2.8839;-4.6307;34.8100 
1643.896;0.7256;-0.5420;0.9404;-0.9155;-0.8545;50.6592;-6.1743;-2.9608;-4.3726;34.8100 
1643.896;0.7256;-0.5420;0.9404;-0.9155;-0.8545;50.6592;-6.2512;-3.0322;-4.1144;34.8100 
1643.896;0.7256;-0.5420;0.9404;-0.9155;-0.8545;50.6592;-6.3281;-3.0981;-3.8562;34.7800 
1643.896;0.7256;-0.5420;0.9404;-0.9155;-0.8545;50.6592;-6.4050;-3.1696;-3.5980;34.7800 
1643.896;0.7256;-0.5420;0.9404;-0.9155;-0.8545;50.6592;-6.4874;-3.2410;-3.3453;34.8100 
1643.896;0.7256;-0.5420;0.9404;-0.9155;-0.8545;50.6592;-6.5643;-3.3069;-3.0872;34.8100 
1643.896;0.7256;-0.5420;0.9404;-0.9155;-0.8545;50.6592;-6.6467;-3.3728;-2.8345;34.7800 
1643.896;0.7256;-0.5420;0.9404;-0.9155;-0.8545;50.6592;-6.7236;-3.4442;-2.5818;34.7800 
1643.896;0.6177;-0.4536;0.9546;0.0000;-0.3052;39.7949;-6.7896;-3.4991;-2.3840;34.8500 
1643.896;0.6177;-0.4536;0.9546;0.0000;-0.3052;39.7949;-6.8500;-3.5596;-2.1918;34.8500 
1643.896;0.6177;-0.4536;0.9546;0.0000;-0.3052;39.7949;-6.9104;-3.6200;-1.9940;34.7600 
1643.896;0.6177;-0.4536;0.9546;0.0000;-0.3052;39.7949;-6.9763;-3.6749;-1.7963;34.7600 
1643.896;0.6177;-0.4536;0.9546;0.0000;-0.3052;39.7949;-7.0367;-3.7299;-1.6040;34.7800 
1643.896;0.6177;-0.4536;0.9546;0.0000;-0.3052;39.7949;-7.1027;-3.7903;-1.4063;34.7800 
1643.896;0.6177;-0.4536;0.9546;0.0000;-0.3052;39.7949;-7.1631;-3.8452;-1.2140;34.7900 
1643.896;0.6177;-0.4536;0.9546;0.0000;-0.3052;39.7949;-7.2290;-3.9001;-1.0162;34.7900 
1643.906;0.5034;-0.3706;0.9717;0.7935;0.3052;30.0293;-7.2729;-3.9441;-0.8789;34.7900 
1643.906;0.5034;-0.3706;0.9717;0.7935;0.3052;30.0293;-7.3224;-3.9880;-0.7361;34.8200 
1643.926;0.5034;-0.3706;0.9717;0.7935;0.3052;30.0293;-7.3663;-4.0320;-0.5988;34.8200 
1643.926;0.5034;-0.3706;0.9717;0.7935;0.3052;30.0293;-7.4103;-4.0759;-0.4559;34.7200 
1643.926;0.5034;-0.3706;0.9717;0.7935;0.3052;30.0293;-7.4597;-4.1199;-0.3186;34.7200 
1643.926;0.5034;-0.3706;0.9717;0.7935;0.3052;30.0293;-7.5037;-4.1638;-0.1758;34.8500 
1643.926;0.5034;-0.3706;0.9717;0.7935;0.3052;30.0293;-7.5476;-4.2078;-0.0385;34.8500 
1643.926;0.5034;-0.3706;0.9717;0.7935;0.3052;30.0293;-7.5970;-4.2462;0.0934;34.8300 
1643.936;0.5669;-0.3843;0.9888;1.2207;0.8545;21.1792;-7.6355;-4.3011;0.1868;34.8300 
1643.936;0.5669;-0.3843;0.9888;1.2207;0.8545;21.1792;-7.6794;-4.3506;0.2802;34.7400 
1643.946;0.5669;-0.3843;0.9888;1.2207;0.8545;21.1792;-7.7234;-4.4055;0.3735;34.7400 
1643.965;0.5669;-0.3843;0.9888;1.2207;0.8545;21.1792;-7.7618;-4.4550;0.4669;34.8100 
1643.965;0.5669;-0.3843;0.9888;1.2207;0.8545;21.1792;-7.8058;-4.5044;0.5603;34.8100 
1643.965;0.5669;-0.3843;0.9888;1.2207;0.8545;21.1792;-7.8442;-4.5593;0.6537;34.7400 
1643.965;0.5669;-0.3843;0.9888;1.2207;0.8545;21.1792;-7.8882;-4.6088;0.7526;34.7400 
1643.965;0.4697;-0.3564;0.9976;1.1597;1.0986;13.5498;-7.9211;-4.6527;0.8075;34.7100 
1643.975;0.4697;-0.3564;0.9976;1.1597;1.0986;13.5498;-7.9541;-4.6912;0.8624;34.7100 
1643.975;0.4697;-0.3564;0.9976;1.1597;1.0986;13.5498;-7.9871;-4.7351;0.9174;34.7100 
1644.065;0.4697;-0.3564;0.9976;1.1597;1.0986;13.5498;-8.0255;-4.7791;0.9723;34.7900 
1644.065;0.4697;-0.3564;0.9976;1.1597;1.0986;13.5498;-8.0585;-4.8175;1.0327;34.7900 
1644.065;0.4697;-0.3564;0.9976;1.1597;1.0986;13.5498;-8.0914;-4.8615;1.0876;34.7500 
1644.085;0.4697;-0.3564;0.9976;1.1597;1.0986;13.5498;-8.1244;-4.8999;1.1426;34.7500 
1644.085;0.4697;-0.3564;0.9976;1.1597;1.0986;13.5498;-8.1628;-4.9438;1.2030;34.7900 
1644.085;0.4946;-0.3711;1.0039;0.9155;1.0376;8.1177;-8.1958;-4.9878;1.2360;34.7900 
1644.085;0.4946;-0.3711;1.0039;0.9155;1.0376;8.1177;-8.2288;-5.0372;1.2689;34.7200 
1644.085;0.4946;-0.3711;1.0039;0.9155;1.0376;8.1177;-8.2617;-5.0867;1.2964;34.7200 
1644.085;0.4946;-0.3711;1.0039;0.9155;1.0376;8.1177;-8.2947;-5.1306;1.3293;34.8000 
1644.095;0.4946;-0.3711;1.0039;0.9155;1.0376;8.1177;-8.3331;-5.1801;1.3623;34.8000 
1644.095;0.4946;-0.3711;1.0039;0.9155;1.0376;8.1177;-8.3661;-5.2295;1.3953;34.7700 
1644.095;0.4946;-0.3711;1.0039;0.9155;1.0376;8.1177;-8.3990;-5.2734;1.4282;34.7700 
1644.095;0.4946;-0.3711;1.0039;0.9155;1.0376;8.1177;-8.4320;-5.3229;1.4557;34.7900 
1644.105;0.3638;-0.3149;1.0034;0.6714;0.7935;5.0049;-8.4595;-5.3558;1.4722;34.7900 
1644.105;0.3638;-0.3149;1.0034;0.6714;0.7935;5.0049;-8.4869;-5.3888;1.4832;34.7500 
1644.105;0.3638;-0.3149;1.0034;0.6714;0.7935;5.0049;-8.5089;-5.4218;1.4996;34.7500 
1644.105;0.3638;-0.3149;1.0034;0.6714;0.7935;5.0049;-8.5364;-5.4547;1.5161;34.7500 
1644.115;0.3638;-0.3149;1.0034;0.6714;0.7935;5.0049;-8.5638;-5.4822;1.5271;34.7700 
1644.115;0.3638;-0.3149;1.0034;0.6714;0.7935;5.0049;-8.5913;-5.5151;1.5436;34.7700 
1644.125;0.3638;-0.3149;1.0034;0.6714;0.7935;5.0049;-8.6133;-5.5481;1.5601;34.7400 
1644.125;0.3638;-0.3149;1.0034;0.6714;0.7935;5.0049;-8.6407;-5.5811;1.5710;34.7400 
1644.125;0.1997;-0.2129;1.0010;0.3662;0.5493;4.1504;-8.6517;-5.5920;1.5820;34.7600 
1644.125;0.1997;-0.2129;1.0010;0.3662;0.5493;4.1504;-8.6627;-5.6030;1.5875;34.7600 
1644.145;0.1997;-0.2129;1.0010;0.3662;0.5493;4.1504;-8.6737;-5.6140;1.5930;34.7100 
1644.165;0.1997;-0.2129;1.0010;0.3662;0.5493;4.1504;-8.6847;-5.6250;1.6040;34.7100 
1644.165;0.1997;-0.2129;1.0010;0.3662;0.5493;4.1504;-8.6957;-5.6305;1.6150;34.8400 
1644.165;0.1997;-0.2129;1.0010;0.3662;0.5493;4.1504;-8.7067;-5.6415;1.6205;34.8400 
1644.165;0.1997;-0.2129;1.0010;0.3662;0.5493;4.1504;-8.7122;-5.6525;1.6315;34.7500 
1644.165;0.1997;-0.2129;1.0010;0.3662;0.5493;4.1504;-8.7231;-5.6635;1.6425;34.7500 
1644.175;0.0801;-0.1079;0.9980;0.1221;0.2441;4.2114;-8.7177;-5.6580;1.6534;34.7600 
1644.175;0.0801;-0.1079;0.9980;0.1221;0.2441;4.2114;-8.7122;-5.6470;1.6644;34.7600 
1644.265;0.0801;-0.1079;0.9980;0.1221;0.2441;4.2114;-8.7067;-5.6415;1.6754;34.8400 
1644.265;0.0801;-0.1079;0.9980;0.1221;0.2441;4.2114;-8.7012;-5.6305;1.6809;34.8400 
1644.265;0.0801;-0.1079;0.9980;0.1221;0.2441;4.2114;-8.6957;-5.6250;1.6919;34.8400 
1644.265;0.0801;-0.1079;0.9980;0.1221;0.2441;4.2114;-8.6847;-5.6195;1.7029;34.7900 
1644.265;0.0801;-0.1079;0.9980;0.1221;0.2441;4.2114;-8.6792;-5.6085;1.7139;34.7900 
1644.275;0.0801;-0.1079;0.9980;0.1221;0.2441;4.2114;-8.6737;-5.6030;1.7249;34.7500 
1644.275;0.0142;-0.0269;0.9956;0.0000;0.0000;3.6011;-8.6572;-5.5865;1.7303;34.7500 
1644.275;0.0142;-0.0269;0.9956;0.0000;0.0000;3.6011;-8.6353;-5.5701;1.7358;34.7500 
1644.275;0.0142;-0.0269;0.9956;0.0000;0.0000;3.6011;-8.6133;-5.5536;1.7413;34.7500 
1644.275;0.0142;-0.0269;0.9956;0.0000;0.0000;3.6011;-8.5968;-5.5371;1.7523;34.8100 
1644.275;0.0142;-0.0269;0.9956;0.0000;0.0000;3.6011;-8.5748;-5.5206;1.7578;34.8100 
1644.275;0.0142;-0.0269;0.9956;0.0000;0.0000;3.6011;-8.5529;-5.5042;1.7633;34.7800 
1644.275;0.0142;-0.0269;0.9956;0.0000;0.0000;3.6011;-8.5364;-5.4877;1.7688;34.7800 
1644.275;0.0142;-0.0269;0.9956;0.0000;0.0000;3.6011;-8.5144;-5.4767;1.7798;34.7600 
1644.275;-0.0068;0.0205;0.9941;-0.0610;-0.0610;2.3804;-8.4869;-5.4547;1.7798;34.7600 
1644.275;-0.0068;0.0205;0.9941;-0.0610;-0.0610;2.3804;-8.4595;-5.4382;1.7798;34.7800 
1644.275;-0.0068;0.0205;0.9941;-0.0610;-0.0610;2.3804;-8.4320;-5.4218;1.7798;34.7800 
1644.275;-0.0068;0.0205;0.9941;-0.0610;-0.0610;2.3804;-8.4045;-5.3998;1.7798;34.7800 
1644.275;-0.0068;0.0205;0.9941;-0.0610;-0.0610;2.3804;-8.3771;-5.3833;1.7798;34.7600 
1644.275;-0.0068;0.0205;0.9941;-0.0610;-0.0610;2.3804;-8.3441;-5.3668;1.7798;34.7600 
1644.275;-0.0068;0.0205;0.9941;-0.0610;-0.0610;2.3804;-8.3167;-5.3503;1.7798;34.8200 
1644.275;-0.0068;0.0205;0.9941;-0.0610;-0.0610;2.3804;-8.2892;-5.3284;1.7798;34.8200 
1644.275;0.0020;0.0386;0.9937;-0.0610;-0.1221;1.0986;-8.2617;-5.3174;1.7743;34.7500 
1644.275;0.0020;0.0386;0.9937;-0.0610;-0.1221;1.0986;-8.2288;-5.3009;1.7688;34.7500 
1644.275;0.0020;0.0386;0.9937;-0.0610;-0.1221;1.0986;-8.1958;-5.2844;1.7633;34.7700 
1644.275;0.0020;0.0386;0.9937;-0.0610;-0.1221;1.0986;-8.1683;-5.2734;1.7578;34.7700 
1644.285;0.0020;0.0386;0.9937;-0.0610;-0.1221;1.0986;-8.1354;-5.2570;1.7523;34.8100 
1644.285;0.0020;0.0386;0.9937;-0.0610;-0.1221;1.0986;-8.1079;-5.2405;1.7468;34.8100 
1644.285;0.0020;0.0386;0.9937;-0.0610;-0.1221;1.0986;-8.0750;-5.2295;1.7468;34.8300 
1644.285;0.0020;0.0386;0.9937;-0.0610;-0.1221;1.0986;-8.0420;-5.2130;1.7413;34.8300 
1644.295;0.0234;0.0361;0.9937;-0.0610;-0.1221;0.1221;-8.0145;-5.2020;1.7303;34.7700 
1644.295;0.0234;0.0361;0.9937;-0.0610;-0.1221;0.1221;-7.9816;-5.1910;1.7194;34.7700 
1644.315;0.0234;0.0361;0.9937;-0.0610;-0.1221;0.1221;-7.9541;-5.1801;1.7084;34.8600 
1644.315;0.0234;0.0361;0.9937;-0.0610;-0.1221;0.1221;-7.9211;-5.1746;1.6974;34.8600 
1644.315;0.0234;0.0361;0.9937;-0.0610;-0.1221;0.1221;-7.8937;-5.1636;1.6919;34.8600 
1644.315;0.0234;0.0361;0.9937;-0.0610;-0.1221;0.1221;-7.8607;-5.1526;1.6809;34.7300 
1644.335;0.0234;0.0361;0.9937;-0.0610;-0.1221;0.1221;-7.8333;-5.1416;1.6699;34.7300 
1644.335;0.0234;0.0361;0.9937;-0.0610;-0.1221;0.1221;-7.8058;-5.1306;1.6589;34.7600 
1644.345;0.0469;0.0239;0.9937;-0.0610;-0.0610;-0.3662;-7.7783;-5.1251;1.6425;34.7600 
1644.345;0.0469;0.0239;0.9937;-0.0610;-0.0610;-0.3662;-7.7509;-5.1196;1.6315;34.7900 
1644.355;0.0469;0.0239;0.9937;-0.0610;-0.0610;-0.3662;-7.7234;-5.1141;1.6150;34.7900 
1644.355;0.0469;0.0239;0.9937;-0.0610;-0.0610;-0.3662;-7.6959;-5.1086;1.5985;34.8100 
1644.385;0.0469;0.0239;0.9937;-0.0610;-0.0610;-0.3662;-7.6685;-5.1031;1.5875;34.8100 
1644.385;0.0469;0.0239;0.9937;-0.0610;-0.0610;-0.3662;-7.6410;-5.0977;1.5710;34.7600 
1644.475;0.0469;0.0239;0.9937;-0.0610;-0.0610;-0.3662;-7.6135;-5.0922;1.5546;34.7600 
1644.475;0.0469;0.0239;0.9937;-0.0610;-0.0610;-0.3662;-7.5861;-5.0867;1.5381;34.7500 
1644.515;0.0649;0.0088;0.9941;-0.0610;0.0000;-0.6104;-7.5586;-5.0867;1.5216;34.7500 
1644.515;0.0649;0.0088;0.9941;-0.0610;0.0000;-0.6104;-7.5366;-5.0812;1.4996;34.7600 
1644.515;0.0649;0.0088;0.9941;-0.0610;0.0000;-0.6104;-7.5092;-5.0812;1.4832;34.7600 
1644.515;0.0649;0.0088;0.9941;-0.0610;0.0000;-0.6104;-7.4872;-5.0757;1.4667;34.7500 
1644.515;0.0649;0.0088;0.9941;-0.0610;0.0000;-0.6104;-7.4652;-5.0757;1.4502;34.7500 
1644.515;0.0649;0.0088;0.9941;-0.0610;0.0000;-0.6104;-7.4377;-5.0702;1.4337;34.7500 
1644.515;0.0649;0.0088;0.9941;-0.0610;0.0000;-0.6104;-7.4158;-5.0702;1.4227;34.7900 
1644.515;0.0649;0.0088;0.9941;-0.0610;0.0000;-0.6104;-7.3938;-5.0647;1.4008;34.7900 
1644.535;0.0762;-0.0034;0.9941;0.0000;0.0000;-0.5493;-7.3718;-5.0647;1.3843;34.7700 
1644.535;0.0762;-0.0034;0.9941;0.0000;0.0000;-0.5493;-7.3499;-5.0647;1.3678;34.7700 
1644.535;0.0762;-0.0034;0.9941;0.0000;0.0000;-0.5493;-7.3279;-5.0647;1.3513;34.8000 
1644.535;0.0762;-0.0034;0.9941;0.0000;0.0000;-0.5493;-7.3059;-5.0647;1.3403;34.8000 
1644.535;0.0762;-0.0034;0.9941;0.0000;0.0000;-0.5493;-7.2839;-5.0592;1.3293;34.8200 
1644.545;0.0762;-0.0034;0.9941;0.0000;0.0000;-0.5493;-7.2620;-5.0592;1.3129;34.8200 
1644.545;0.0762;-0.0034;0.9941;0.0000;0.0000;-0.5493;-7.2400;-5.0592;1.3019;34.7700 
1644.555;0.0762;-0.0034;0.9941;0.0000;0.0000;-0.5493;-7.2180;-5.0592;1.2909;34.7700 
1644.555;0.0806;-0.0117;0.9946;0.0000;0.0000;-0.4272;-7.1960;-5.0592;1.2799;34.8100 
1644.585;0.0806;-0.0117;0.9946;0.0000;0.0000;-0.4272;-7.1796;-5.0592;1.2689;34.8100 
1644.585;0.0806;-0.0117;0.9946;0.0000;0.0000;-0.4272;-7.1576;-5.0537;1.2579;34.7500 
1644.735;0.0806;-0.0117;0.9946;0.0000;0.0000;-0.4272;-7.1411;-5.0537;1.2469;34.7500 
1644.735;0.0806;-0.0117;0.9946;0.0000;0.0000;-0.4272;-7.1191;-5.0537;1.2360;34.7200 
1644.755;0.0806;-0.0117;0.9946;0.0000;0.0000;-0.4272;-7.0972;-5.0537;1.2250;34.7200 
1644.755;0.0806;-0.0117;0.9946;0.0000;0.0000;-0.4272;-7.0807;-5.0537;1.2140;34.7200 
1644.755;0.0806;-0.0117;0.9946;0.0000;0.0000;-0.4272;-7.0587;-5.0537;1.1975;34.8700 
1644.755;0.0801;-0.0151;0.9951;0.0000;0.0000;-0.2441;-7.0422;-5.0537;1.1865;34.8700 
1644.755;0.0801;-0.0151;0.9951;0.0000;0.0000;-0.2441;-7.0258;-5.0537;1.1755;34.7400 
1644.755;0.0801;-0.0151;0.9951;0.0000;0.0000;-0.2441;-7.0038;-5.0537;1.1646;34.7400 
1644.775;0.0801;-0.0151;0.9951;0.0000;0.0000;-0.2441;-6.9873;-5.0537;1.1536;34.7900 
1644.775;0.0801;-0.0151;0.9951;0.0000;0.0000;-0.2441;-6.9653;-5.0482;1.1426;34.7900 
1644.785;0.0801;-0.0151;0.9951;0.0000;0.0000;-0.2441;-6.9489;-5.0482;1.1316;34.8100 
1644.785;0.0801;-0.0151;0.9951;0.0000;0.0000;-0.2441;-6.9324;-5.0482;1.1206;34.8100 
1644.815;0.0801;-0.0151;0.9951;0.0000;0.0000;-0.2441;-6.9104;-5.0482;1.1096;34.7600 
1644.815;0.0776;-0.0151;0.9946;0.0000;0.0000;-0.0610;-6.8939;-5.0482;1.0931;34.7600 
1644.935;0.0776;-0.0151;0.9946;0.0000;0.0000;-0.0610;-6.8774;-5.0482;1.0822;34.7700 
1644.935;0.0776;-0.0151;0.9946;0.0000;0.0000;-0.0610;-6.8555;-5.0482;1.0712;34.7700 
1644.955;0.0776;-0.0151;0.9946;0.0000;0.0000;-0.0610;-6.8390;-5.0427;1.0602;34.7700 
1644.955;0.0776;-0.0151;0.9946;0.0000;0.0000;-0.0610;-6.8225;-5.0427;1.0492;34.7700 
1644.955;0.0776;-0.0151;0.9946;0.0000;0.0000;-0.0610;-6.8060;-5.0427;1.0327;34.7700 
1644.955;0.0776;-0.0151;0.9946;0.0000;0.0000;-0.0610;-6.7841;-5.0427;1.0217;34.8000 
1644.955;0.0776;-0.0151;0.9946;0.0000;0.0000;-0.0610;-6.7676;-5.0427;1.0052;34.8000 
1644.955;0.0747;-0.0137;0.9946;0.0000;0.0000;0.0000;-6.7511;-5.0372;0.9943;34.8100 
1644.955;0.0747;-0.0137;0.9946;0.0000;0.0000;0.0000;-6.7346;-5.0372;0.9833;34.8100 
1644.955;0.0747;-0.0137;0.9946;0.0000;0.0000;0.0000;-6.7126;-5.0372;0.9668;34.7700 
1644.985;0.0747;-0.0137;0.9946;0.0000;0.0000;0.0000;-6.6962;-5.0317;0.9558;34.7700 
1644.995;0.0747;-0.0137;0.9946;0.0000;0.0000;0.0000;-6.6797;-5.0317;0.9448;34.7600 
1644.995;0.0747;-0.0137;0.9946;0.0000;0.0000;0.0000;-6.6632;-5.0317;0.9283;34.7600 
1645.025;0.0747;-0.0137;0.9946;0.0000;0.0000;0.0000;-6.6412;-5.0317;0.9174;34.8200 
1645.025;0.0747;-0.0137;0.9946;0.0000;0.0000;0.0000;-6.6248;-5.0262;0.9064;34.8200 
1645.045;0.0723;-0.0112;0.9946;0.0000;0.0000;0.0000;-6.6083;-5.0262;0.8954;34.7700 
1645.045;0.0723;-0.0112;0.9946;0.0000;0.0000;0.0000;-6.5918;-5.0262;0.8789;34.7700 
1645.135;0.0723;-0.0112;0.9946;0.0000;0.0000;0.0000;-6.5698;-5.0208;0.8679;34.7600 
1645.135;0.0723;-0.0112;0.9946;0.0000;0.0000;0.0000;-6.5533;-5.0208;0.8569;34.7600 
1645.155;0.0723;-0.0112;0.9946;0.0000;0.0000;0.0000;-6.5369;-5.0153;0.8459;34.7500 
1645.155;0.0723;-0.0112;0.9946;0.0000;0.0000;0.0000;-6.5204;-5.0153;0.8350;34.7500 
1645.205;0.0723;-0.0112;0.9946;0.0000;0.0000;0.0000;-6.4984;-5.0153;0.8240;34.7500 
1645.205;0.0723;-0.0112;0.9946;0.0000;0.0000;0.0000;-6.4819;-5.0098;0.8130;34.8400 
1645.205;0.0708;-0.0093;0.9946;0.0000;0.0000;0.0000;-6.4655;-5.0098;0.8020;34.8400 
1645.205;0.0708;-0.0093;0.9946;0.0000;0.0000;0.0000;-6.4490;-5.0098;0.7910;34.7600 
1645.245;0.0708;-0.0093;0.9946;0.0000;0.0000;0.0000;-6.4270;-5.0043;0.7800;34.7600 
1645.245;0.0708;-0.0093;0.9946;0.0000;0.0000;0.0000;-6.4105;-5.0043;0.7635;34.7600 
1645.245;0.0708;-0.0093;0.9946;0.0000;0.0000;0.0000;-6.3940;-4.9988;0.7526;34.7600 
1645.245;0.0708;-0.0093;0.9946;0.0000;0.0000;0.0000;-6.3776;-4.9988;0.7416;34.8100 
1645.345;0.0708;-0.0093;0.9946;0.0000;0.0000;0.0000;-6.3556;-4.9988;0.7306;34.8100 
1645.345;0.0708;-0.0093;0.9946;0.0000;0.0000;0.0000;-6.3391;-4.9933;0.7196;34.7900 
1645.345;0.0698;-0.0078;0.9946;0.0000;0.0000;0.0000;-6.3226;-4.9933;0.7031;34.7900 
1645.345;0.0698;-0.0078;0.9946;0.0000;0.0000;0.0000;-6.3062;-4.9878;0.6976;34.7300 
1645.365;0.0698;-0.0078;0.9946;0.0000;0.0000;0.0000;-6.2897;-4.9878;0.6866;34.7300 
1645.365;0.0698;-0.0078;0.9946;0.0000;0.0000;0.0000;-6.2677;-4.9823;0.6757;34.7600 
1645.365;0.0698;-0.0078;0.9946;0.0000;0.0000;0.0000;-6.2512;-4.9823;0.6647;34.7600 
1645.365;0.0698;-0.0078;0.9946;0.0000;0.0000;0.0000;-6.2347;-4.9823;0.6537;34.7700 
1645.375;0.0698;-0.0078;0.9946;0.0000;0.0000;0.0000;-6.2183;-4.9768;0.6427;34.7700 
1645.375;0.0698;-0.0078;0.9946;0.0000;0.0000;0.0000;-6.2018;-4.9768;0.6317;34.7700 
1645.375;0.0698;-0.0073;0.9946;0.0000;0.0000;0.0000;-6.1798;-4.9713;0.6207;34.7900 
1645.415;0.0698;-0.0073;0.9946;0.0000;0.0000;0.0000;-6.1633;-4.9713;0.6097;34.7900 
1645.415;0.0698;-0.0073;0.9946;0.0000;0.0000;0.0000;-6.1469;-4.9658;0.6042;34.8100 
1645.415;0.0698;-0.0073;0.9946;0.0000;0.0000;0.0000;-6.1304;-4.9658;0.5933;34.8100 
1645.415;0.0698;-0.0073;0.9946;0.0000;0.0000;0.0000;-6.1139;-4.9658;0.5823;34.8000 
1645.445;0.0698;-0.0073;0.9946;0.0000;0.0000;0.0000;-6.0974;-4.9603;0.5713;34.8000 
1645.445;0.0698;-0.0073;0.9946;0.0000;0.0000;0.0000;-6.0809;-4.9603;0.5603;34.7300 
1645.445;0.0698;-0.0073;0.9946;0.0000;0.0000;0.0000;-6.0590;-4.9548;0.5493;34.7300 
1645.445;0.0698;-0.0073;0.9946;0.0000;0.0000;0.0000;-6.0425;-4.9548;0.5383;34.8000 
1645.555;0.0698;-0.0073;0.9946;0.0000;0.0000;0.0000;-6.0260;-4.9548;0.5273;34.8000 
1645.555;0.0698;-0.0073;0.9946;0.0000;0.0000;0.0000;-6.0095;-4.9493;0.5164;34.7800 
1645.555;0.0698;-0.0073;0.9946;0.0000;0.0000;0.0000;-5.9930;-4.9493;0.5054;34.7800 
1645.555;0.0698;-0.0073;0.9946;0.0000;0.0000;0.0000;-5.9766;-4.9438;0.4944;34.7300 
1645.565;0.0698;-0.0073;0.9946;0.0000;0.0000;0.0000;-5.9601;-4.9438;0.4834;34.7300 
1645.565;0.0698;-0.0073;0.9946;0.0000;0.0000;0.0000;-5.9436;-4.9384;0.4724;34.7900 
1645.565;0.0698;-0.0073;0.9946;0.0000;0.0000;0.0000;-5.9271;-4.9384;0.4669;34.7900 
1645.565;0.0708;-0.0078;0.9946;0.0000;0.0000;0.0000;-5.9106;-4.9384;0.4559;34.7900 
1645.565;0.0708;-0.0078;0.9946;0.0000;0.0000;0.0000;-5.8942;-4.9329;0.4449;34.8600 
1645.565;0.0708;-0.0078;0.9946;0.0000;0.0000;0.0000;-5.8777;-4.9329;0.4340;34.8600 
1645.565;0.0708;-0.0078;0.9946;0.0000;0.0000;0.0000;-5.8612;-4.9274;0.4285;34.7500 
1645.565;0.0708;-0.0078;0.9946;0.0000;0.0000;0.0000;-5.8447;-4.9274;0.4175;34.7500 
1645.565;0.0708;-0.0078;0.9946;0.0000;0.0000;0.0000;-5.8282;-4.9274;0.4065;34.8000 
1645.565;0.0708;-0.0078;0.9946;0.0000;0.0000;0.0000;-5.8118;-4.9219;0.3955;34.8000 
1645.565;0.0708;-0.0078;0.9946;0.0000;0.0000;0.0000;-5.7953;-4.9219;0.3900;34.7800 
1645.565;0.0713;-0.0083;0.9941;0.0000;0.0000;0.0000;-5.7788;-4.9219;0.3790;34.7800 
1645.565;0.0713;-0.0083;0.9941;0.0000;0.0000;0.0000;-5.7623;-4.9164;0.3680;34.7800 
1645.565;0.0713;-0.0083;0.9941;0.0000;0.0000;0.0000;-5.7458;-4.9164;0.3571;34.7800 
1645.565;0.0713;-0.0083;0.9941;0.0000;0.0000;0.0000;-5.7294;-4.9109;0.3461;34.7900 
1645.585;0.0713;-0.0083;0.9941;0.0000;0.0000;0.0000;-5.7184;-4.9109;0.3406;34.7900 
1645.585;0.0713;-0.0083;0.9941;0.0000;0.0000;0.0000;-5.7019;-4.9109;0.3296;34.7100 
1645.585;0.0713;-0.0083;0.9941;0.0000;0.0000;0.0000;-5.6854;-4.9054;0.3186;34.7100 
1645.585;0.0713;-0.0083;0.9941;0.0000;0.0000;0.0000;-5.6689;-4.9054;0.3076;34.7100 
1645.585;0.0718;-0.0088;0.9941;0.0000;0.0000;0.0000;-5.6525;-4.9054;0.2966;34.7600 
1645.585;0.0718;-0.0088;0.9941;0.0000;0.0000;0.0000;-5.6360;-4.8999;0.2856;34.7600 
1645.585;0.0718;-0.0088;0.9941;0.0000;0.0000;0.0000;-5.6195;-4.8999;0.2802;34.7900 
1645.585;0.0718;-0.0088;0.9941;0.0000;0.0000;0.0000;-5.6085;-4.8999;0.2692;34.7900 
1645.615;0.0718;-0.0088;0.9941;0.0000;0.0000;0.0000;-5.5920;-4.8944;0.2637;34.8500 
1645.615;0.0718;-0.0088;0.9941;0.0000;0.0000;0.0000;-5.5756;-4.8944;0.2582;34.8500 
1645.615;0.0718;-0.0088;0.9941;0.0000;0.0000;0.0000;-5.5591;-4.8944;0.2472;34.7900 
1645.615;0.0718;-0.0088;0.9941;0.0000;0.0000;0.0000;-5.5481;-4.8889;0.2417;34.7900 
1645.625;0.0718;-0.0088;0.9941;0.0000;0.0000;0.0000;-5.5316;-4.8889;0.2307;34.7500 
1645.625;0.0718;-0.0088;0.9941;0.0000;0.0000;0.0000;-5.5151;-4.8889;0.2197;34.7500 
1645.625;0.0718;-0.0088;0.9941;0.0000;0.0000;0.0000;-5.4987;-4.8834;0.2142;34.8400 
1645.625;0.0718;-0.0088;0.9941;0.0000;0.0000;0.0000;-5.4877;-4.8834;0.2032;34.8400 
1645.645;0.0718;-0.0088;0.9941;0.0000;0.0000;0.0000;-5.4712;-4.8834;0.1978;34.8100 
1645.645;0.0718;-0.0088;0.9941;0.0000;0.0000;0.0000;-5.4547;-4.8779;0.1868;34.8100 
1645.645;0.0718;-0.0088;0.9941;0.0000;0.0000;0.0000;-5.4382;-4.8779;0.1813;34.8300 
1645.645;0.0718;-0.0088;0.9941;0.0000;0.0000;0.0000;-5.4272;-4.8779;0.1703;34.8300 
1645.645;0.0713;-0.0088;0.9941;0.0000;0.0000;0.0000;-5.4108;-4.8724;0.1593;34.8300 
1645.645;0.0713;-0.0088;0.9941;0.0000;0.0000;0.0000;-5.3943;-4.8724;0.1538;34.7700 
1645.645;0.0713;-0.0088;0.9941;0.0000;0.0000;0.0000;-5.3833;-4.8669;0.1428;34.7700 
1645.665;0.0713;-0.0088;0.9941;0.0000;0.0000;0.0000;-5.3668;-4.8669;0.1373;34.7800 
1645.665;0.0713;-0.0088;0.9941;0.0000;0.0000;0.0000;-5.3503;-4.8669;0.1263;34.7800 
1645.665;0.0713;-0.0088;0.9941;0.0000;0.0000;0.0000;-5.3394;-4.8615;0.1154;34.8700 
1645.665;0.0713;-0.0088;0.9941;0.0000;0.0000;0.0000;-5.3229;-4.8615;0.1044;34.8700 
1645.785;0.0713;-0.0088;0.9941;0.0000;0.0000;0.0000;-5.3064;-4.8615;0.0934;34.8100 
1645.785;0.0708;-0.0088;0.9941;0.0000;0.0000;0.0000;-5.2954;-4.8560;0.0824;34.8100 
1645.785;0.0708;-0.0088;0.9941;0.0000;0.0000;0.0000;-5.2789;-4.8560;0.0714;34.7400 
1645.785;0.0708;-0.0088;0.9941;0.0000;0.0000;0.0000;-5.2625;-4.8560;0.0604;34.7400 
1645.805;0.0708;-0.0088;0.9941;0.0000;0.0000;0.0000;-5.2515;-4.8505;0.0494;34.7900 
1645.805;0.0708;-0.0088;0.9941;0.0000;0.0000;0.0000;-5.2350;-4.8505;0.0385;34.7900 
1645.805;0.0708;-0.0088;0.9941;0.0000;0.0000;0.0000;-5.2240;-4.8505;0.0330;34.7600 
1645.805;0.0708;-0.0088;0.9941;0.0000;0.0000;0.0000;-5.2075;-4.8450;0.0220;34.7600 
1645.805;0.0708;-0.0088;0.9941;0.0000;0.0000;0.0000;-5.1910;-4.8450;0.0110;34.8200 
1645.805;0.0703;-0.0083;0.9946;0.0000;0.0000;0.0000;-5.1801;-4.8450;0.0055;34.8200 
1645.805;0.0703;-0.0083;0.9946;0.0000;0.0000;0.0000;-5.1636;-4.8395;0.0000;34.8200 
1645.805;0.0703;-0.0083;0.9946;0.0000;0.0000;0.0000;-5.1526;-4.8395;-0.0055;34.7300 
1645.805;0.0703;-0.0083;0.9946;0.0000;0.0000;0.0000;-5.1361;-4.8340;-0.0110;34.7300 
1645.805;0.0703;-0.0083;0.9946;0.0000;0.0000;0.0000;-5.1196;-4.8340;-0.0220;34.7800 
1645.805;0.0703;-0.0083;0.9946;0.0000;0.0000;0.0000;-5.1086;-4.8340;-0.0275;34.7800 
1645.805;0.0703;-0.0083;0.9946;0.0000;0.0000;0.0000;-5.0922;-4.8285;-0.0330;34.7300 
1645.805;0.0703;-0.0083;0.9946;0.0000;0.0000;0.0000;-5.0812;-4.8285;-0.0439;34.7300 
1645.805;0.0703;-0.0083;0.9946;0.0000;0.0000;0.0000;-5.0647;-4.8285;-0.0494;34.8300 
1645.805;0.0703;-0.0083;0.9946;0.0000;0.0000;0.0000;-5.0537;-4.8230;-0.0604;34.8300 
1645.805;0.0703;-0.0083;0.9946;0.0000;0.0000;0.0000;-5.0372;-4.8230;-0.0659;34.7800 
1645.924;0.0703;-0.0083;0.9946;0.0000;0.0000;0.0000;-5.0262;-4.8230;-0.0769;34.7800 
1645.924;0.0703;-0.0083;0.9946;0.0000;0.0000;0.0000;-5.0098;-4.8175;-0.0879;34.8300 
1645.924;0.0703;-0.0083;0.9946;0.0000;0.0000;0.0000;-4.9988;-4.8175;-0.0989;34.8300 
1646.014;0.0703;-0.0083;0.9946;0.0000;0.0000;0.0000;-4.9823;-4.8120;-0.1099;34.8000 
1646.014;0.0703;-0.0083;0.9946;0.0000;0.0000;0.0000;-4.9713;-4.8120;-0.1208;34.8000 
1646.014;0.0703;-0.0083;0.9946;0.0000;0.0000;0.0000;-4.9548;-4.8120;-0.1263;34.7500 
1646.014;0.0703;-0.0083;0.9946;0.0000;0.0000;0.0000;-4.9438;-4.8065;-0.1373;34.7500 
1646.034;0.0703;-0.0083;0.9946;0.0000;0.0000;0.0000;-4.9274;-4.8065;-0.1483;34.7500 
1646.034;0.0703;-0.0083;0.9946;0.0000;0.0000;0.0000;-4.9164;-4.8065;-0.1593;34.7600 
1646.034;0.0703;-0.0083;0.9946;0.0000;0.0000;0.0000;-4.9054;-4.8010;-0.1703;34.7600 
1646.034;0.0703;-0.0083;0.9946;0.0000;0.0000;0.0000;-4.8889;-4.8010;-0.1813;34.7800 
1646.064;0.0703;-0.0083;0.9946;0.0000;0.0000;0.0000;-4.8779;-4.8010;-0.1923;34.7800 
1646.064;0.0703;-0.0083;0.9946;0.0000;0.0000;0.0000;-4.8615;-4.7955;-0.2032;34.8100 
1646.064;0.0703;-0.0083;0.9946;0.0000;0.0000;0.0000;-4.8505;-4.7955;-0.2087;34.8100 
1646.064;0.0703;-0.0083;0.9946;0.0000;0.0000;0.0000;-4.8340;-4.7955;-0.2142;34.7500 
1646.084;0.0703;-0.0083;0.9946;0.0000;0.0000;0.0000;-4.8230;-4.7900;-0.2252;34.7500 
1646.084;0.0703;-0.0083;0.9946;0.0000;0.0000;0.0000;-4.8120;-4.7900;-0.2307;34.8300 
1646.084;0.0703;-0.0083;0.9946;0.0000;0.0000;0.0000;-4.7955;-4.7900;-0.2417;34.8300 
1646.084;0.0703;-0.0083;0.9946;0.0000;0.0000;0.0000;-4.7845;-4.7845;-0.2527;34.7800 
1646.114;0.0703;-0.0083;0.9946;0.0000;0.0000;0.0000;-4.7736;-4.7845;-0.2582;34.7800 
1646.114;0.0703;-0.0083;0.9946;0.0000;0.0000;0.0000;-4.7571;-4.7845;-0.2692;34.7900 
1646.114;0.0703;-0.0083;0.9946;0.0000;0.0000;0.0000;-4.7461;-4.7791;-0.2747;34.7900 
1646.114;0.0703;-0.0083;0.9946;0.0000;0.0000;0.0000;-4.7351;-4.7791;-0.2802;34.7900 
1646.134;0.0703;-0.0083;0.9946;0.0000;0.0000;0.0000;-4.7186;-4.7791;-0.2911;34.8100 
1646.134;0.0703;-0.0083;0.9946;0.0000;0.0000;0.0000;-4.7076;-4.7736;-0.2966;34.8100 
1646.134;0.0703;-0.0083;0.9946;0.0000;0.0000;0.0000;-4.6967;-4.7736;-0.3021;34.7700 
1646.264;0.0703;-0.0083;0.9946;0.0000;0.0000;0.0000;-4.6802;-4.7681;-0.3076;34.7700 
1646.264;0.0703;-0.0083;0.9946;0.0000;0.0000;0.0000;-4.6692;-4.7681;-0.3131;34.7500 
1646.264;0.0703;-0.0083;0.9946;0.0000;0.0000;0.0000;-4.6582;-4.7681;-0.3186;34.7500 
1646.264;0.0708;-0.0088;0.9941;0.0000;0.0000;0.0000;-4.6417;-4.7626;-0.3241;34.7200 
1646.274;0.0708;-0.0088;0.9941;0.0000;0.0000;0.0000;-4.6307;-4.7626;-0.3296;34.7200 
1646.274;0.0708;-0.0088;0.9941;0.0000;0.0000;0.0000;-4.6198;-4.7626;-0.3351;34.8200 
1646.274;0.0708;-0.0088;0.9941;0.0000;0.0000;0.0000;-4.6088;-4.7571;-0.3406;34.8200 
1646.274;0.0708;-0.0088;0.9941;0.0000;0.0000;0.0000;-4.5923;-4.7571;-0.3516;34.8000 
1646.274;0.0708;-0.0088;0.9941;0.0000;0.0000;0.0000;-4.5813;-4.7571;-0.3571;34.8000 
1646.274;0.0708;-0.0088;0.9941;0.0000;0.0000;0.0000;-4.5703;-4.7516;-0.3625;34.7300 
1646.274;0.0708;-0.0088;0.9941;0.0000;0.0000;0.0000;-4.5593;-4.7516;-0.3735;34.7300 
1646.274;0.0708;-0.0088;0.9941;0.0000;0.0000;0.0000;-4.5428;-4.7516;-0.3845;34.8100 
1646.274;0.0708;-0.0088;0.9941;0.0000;0.0000;0.0000;-4.5319;-4.7461;-0.3900;34.8100 
1646.274;0.0708;-0.0088;0.9941;0.0000;0.0000;0.0000;-4.5209;-4.7461;-0.4010;34.8100 
1646.274;0.0708;-0.0088;0.9941;0.0000;0.0000;0.0000;-4.5099;-4.7461;-0.4065;34.7300 
1646.274;0.0708;-0.0088;0.9941;0.0000;0.0000;0.0000;-4.4989;-4.7461;-0.4175;34.7300 
1646.274;0.0708;-0.0088;0.9941;0.0000;0.0000;0.0000;-4.4824;-4.7406;-0.4230;34.7600 
1646.274;0.0708;-0.0088;0.9941;0.0000;0.0000;0.0000;-4.4714;-4.7406;-0.4285;34.7600 
1646.274;0.0708;-0.0088;0.9941;0.0000;0.0000;0.0000;-4.4604;-4.7406;-0.4395;34.7800 
1646.274;0.0708;-0.0088;0.9937;0.0000;0.0000;0.0000;-4.4495;-4.7351;-0.4449;34.7800 
1646.294;0.0708;-0.0088;0.9937;0.0000;0.0000;0.0000;-4.4385;-4.7351;-0.4504;34.8100 
1646.294;0.0708;-0.0088;0.9937;0.0000;0.0000;0.0000;-4.4220;-4.7351;-0.4559;34.8100 
1646.294;0.0708;-0.0088;0.9937;0.0000;0.0000;0.0000;-4.4110;-4.7296;-0.4614;34.7600 
1646.294;0.0708;-0.0088;0.9937;0.0000;0.0000;0.0000;-4.4000;-4.7296;-0.4669;34.7600 
1646.294;0.0708;-0.0088;0.9937;0.0000;0.0000;0.0000;-4.3890;-4.7296;-0.4724;34.7400 
1646.294;0.0708;-0.0088;0.9937;0.0000;0.0000;0.0000;-4.3781;-4.7241;-0.4779;34.7400 
1646.294;0.0708;-0.0088;0.9937;0.0000;0.0000;0.0000;-4.3671;-4.7241;-0.4889;34.8100 
1646.304;0.0708;-0.0088;0.9941;0.0000;0.0000;0.0000;-4.3561;-4.7241;-0.4944;34.8100 
1646.304;0.0708;-0.0088;0.9941;0.0000;0.0000;0.0000;-4.3451;-4.7186;-0.5054;34.8100 
1646.304;0.0708;-0.0088;0.9941;0.0000;0.0000;0.0000;-4.3286;-4.7186;-0.5109;34.8100 
1646.304;0.0708;-0.0088;0.9941;0.0000;0.0000;0.0000;-4.3176;-4.7186;-0.5219;34.8100 
1646.404;0.0708;-0.0088;0.9941;0.0000;0.0000;0.0000;-4.3066;-4.7131;-0.5273;34.7800 
1646.404;0.0708;-0.0088;0.9941;0.0000;0.0000;0.0000;-4.2957;-4.7131;-0.5328;34.7800 
1646.404;0.0708;-0.0088;0.9941;0.0000;0.0000;0.0000;-4.2847;-4.7131;-0.5383;34.6900 
1646.404;0.0708;-0.0088;0.9941;0.0000;0.0000;0.0000;-4.2737;-4.7131;-0.5493;34.6900 
1646.414;0.0708;-0.0088;0.9941;0.0000;0.0000;0.0000;-4.2627;-4.7076;-0.5548;34.7500 
1646.414;0.0708;-0.0088;0.9941;0.0000;0.0000;0.0000;-4.2517;-4.7076;-0.5603;34.7500 
1646.414;0.0708;-0.0088;0.9941;0.0000;0.0000;0.0000;-4.2407;-4.7076;-0.5713;34.8200 
1646.414;0.0708;-0.0088;0.9941;0.0000;0.0000;0.0000;-4.2297;-4.7021;-0.5768;34.8200 
1646.414;0.0708;-0.0088;0.9941;0.0000;0.0000;0.0000;-4.2188;-4.7021;-0.5823;34.7900 
1646.414;0.0708;-0.0088;0.9941;0.0000;0.0000;0.0000;-4.2078;-4.7021;-0.5878;34.7900 
1646.414;0.0708;-0.0088;0.9941;0.0000;0.0000;0.0000;-4.1968;-4.6967;-0.5988;34.7600 
1646.414;0.0708;-0.0088;0.9941;0.0000;0.0000;0.0000;-4.1858;-4.6967;-0.6042;34.7600 
1646.434;0.0703;-0.0088;0.9946;0.0000;0.0000;0.0000;-4.1748;-4.6967;-0.6097;34.7600 
1646.434;0.0703;-0.0088;0.9946;0.0000;0.0000;0.0000;-4.1638;-4.6912;-0.6097;34.7600 
1646.434;0.0703;-0.0088;0.9946;0.0000;0.0000;0.0000;-4.1528;-4.6912;-0.6152;34.7200 
1646.434;0.0703;-0.0088;0.9946;0.0000;0.0000;0.0000;-4.1418;-4.6912;-0.6207;34.7200 
1646.464;0.0703;-0.0088;0.9946;0.0000;0.0000;0.0000;-4.1309;-4.6912;-0.6262;34.7200 
1646.464;0.0703;-0.0088;0.9946;0.0000;0.0000;0.0000;-4.1199;-4.6857;-0.6317;34.7300 
1646.464;0.0703;-0.0088;0.9946;0.0000;0.0000;0.0000;-4.1089;-4.6857;-0.6372;34.7300 
1646.464;0.0703;-0.0088;0.9946;0.0000;0.0000;0.0000;-4.0979;-4.6857;-0.6427;34.7600 
1646.554;0.0708;-0.0088;0.9951;0.0000;0.0000;0.0000;-4.0869;-4.6802;-0.6427;34.7600 
1646.554;0.0708;-0.0088;0.9951;0.0000;0.0000;0.0000;-4.0759;-4.6802;-0.6482;34.7600 
1646.554;0.0708;-0.0088;0.9951;0.0000;0.0000;0.0000;-4.0649;-4.6802;-0.6592;34.7600 
1646.564;0.0708;-0.0088;0.9951;0.0000;0.0000;0.0000;-4.0540;-4.6747;-0.6647;34.7200 
1646.564;0.0708;-0.0088;0.9951;0.0000;0.0000;0.0000;-4.0430;-4.6747;-0.6757;34.7200 
1646.564;0.0708;-0.0088;0.9951;0.0000;0.0000;0.0000;-4.0320;-4.6747;-0.6812;34.7500 
1646.564;0.0708;-0.0088;0.9951;0.0000;0.0000;0.0000;-4.0210;-4.6692;-0.6866;34.7500 
1646.604;0.0708;-0.0088;0.9951;0.0000;0.0000;0.0000;-4.0100;-4.6692;-0.6921;34.8000 
1646.604;0.0708;-0.0088;0.9946;0.0000;0.0000;0.0000;-3.9990;-4.6692;-0.6976;34.8000 
1646.604;0.0708;-0.0088;0.9946;0.0000;0.0000;0.0000;-3.9880;-4.6692;-0.7031;34.7400 
1646.604;0.0708;-0.0088;0.9946;0.0000;0.0000;0.0000;-3.9771;-4.6637;-0.7086;34.7400 
1646.624;0.0708;-0.0088;0.9946;0.0000;0.0000;0.0000;-3.9661;-4.6637;-0.7196;34.7400 
1646.624;0.0708;-0.0088;0.9946;0.0000;0.0000;0.0000;-3.9551;-4.6637;-0.7251;34.7500 
1646.624;0.0708;-0.0088;0.9946;0.0000;0.0000;0.0000;-3.9496;-4.6582;-0.7306;34.7500 
1646.624;0.0708;-0.0088;0.9946;0.0000;0.0000;0.0000;-3.9386;-4.6582;-0.7361;34.8300 
1646.644;0.0708;-0.0088;0.9946;0.0000;0.0000;0.0000;-3.9276;-4.6582;-0.7416;34.8300 
1646.644;0.0708;-0.0088;0.9951;0.0000;0.0000;0.0000;-3.9166;-4.6582;-0.7471;34.7600 
1646.644;0.0708;-0.0088;0.9951;0.0000;0.0000;0.0000;-3.9056;-4.6527;-0.7526;34.7600 
1646.644;0.0708;-0.0088;0.9951;0.0000;0.0000;0.0000;-3.8947;-4.6527;-0.7581;34.7300 
1646.654;0.0708;-0.0088;0.9951;0.0000;0.0000;0.0000;-3.8837;-4.6527;-0.7690;34.7300 
1646.654;0.0708;-0.0088;0.9951;0.0000;0.0000;0.0000;-3.8727;-4.6472;-0.7745;34.7600 
1646.654;0.0708;-0.0088;0.9951;0.0000;0.0000;0.0000;-3.8672;-4.6472;-0.7800;34.7600 
1646.654;0.0708;-0.0088;0.9951;0.0000;0.0000;0.0000;-3.8562;-4.6472;-0.7855;34.8000 
1646.664;0.0708;-0.0088;0.9951;0.0000;0.0000;0.0000;-3.8452;-4.6472;-0.7910;34.8000 
1646.664;0.0708;-0.0088;0.9946;0.0000;0.0000;0.0000;-3.8342;-4.6417;-0.7965;34.7100 
1646.664;0.0708;-0.0088;0.9946;0.0000;0.0000;0.0000;-3.8232;-4.6417;-0.8020;34.7100 
1646.764;0.0708;-0.0088;0.9946;0.0000;0.0000;0.0000;-3.8123;-4.6417;-0.8130;34.7700 
1646.764;0.0708;-0.0088;0.9946;0.0000;0.0000;0.0000;-3.8068;-4.6417;-0.8185;34.7700 
1646.764;0.0708;-0.0088;0.9946;0.0000;0.0000;0.0000;-3.7958;-4.6362;-0.8295;34.7700 
1646.764;0.0708;-0.0088;0.9946;0.0000;0.0000;0.0000;-3.7848;-4.6362;-0.8350;34.8400 
1646.764;0.0708;-0.0088;0.9946;0.0000;0.0000;0.0000;-3.7738;-4.6362;-0.8459;34.8400 
1646.764;0.0708;-0.0088;0.9946;0.0000;0.0000;0.0000;-3.7628;-4.6307;-0.8569;34.7500 
1646.764;0.0708;-0.0088;0.9946;0.0000;0.0000;0.0000;-3.7573;-4.6307;-0.8624;34.7500 
1646.764;0.0708;-0.0088;0.9946;0.0000;0.0000;0.0000;-3.7463;-4.6307;-0.8734;34.7700 
1646.764;0.0708;-0.0088;0.9946;0.0000;0.0000;0.0000;-3.7354;-4.6307;-0.8844;34.7700 
1646.764;0.0708;-0.0088;0.9946;0.0000;0.0000;0.0000;-3.7244;-4.6252;-0.8954;34.7900 
1646.764;0.0708;-0.0088;0.9946;0.0000;0.0000;0.0000;-3.7134;-4.6252;-0.9064;34.7900 
1646.764;0.0708;-0.0088;0.9946;0.0000;0.0000;0.0000;-3.7079;-4.6252;-0.9174;34.7300 
1646.784;0.0708;-0.0088;0.9946;0.0000;0.0000;0.0000;-3.6969;-4.6252;-0.9229;34.7300 
1646.784;0.0708;-0.0088;0.9946;0.0000;0.0000;0.0000;-3.6859;-4.6198;-0.9338;34.7600 
1646.784;0.0713;-0.0088;0.9946;0.0000;0.0000;0.0000;-3.6749;-4.6198;-0.9448;34.7600 
1646.784;0.0713;-0.0088;0.9946;0.0000;0.0000;0.0000;-3.6694;-4.6198;-0.9503;34.7800 
1646.784;0.0713;-0.0088;0.9946;0.0000;0.0000;0.0000;-3.6584;-4.6198;-0.9558;34.7800 
1646.784;0.0713;-0.0088;0.9946;0.0000;0.0000;0.0000;-3.6475;-4.6143;-0.9668;34.7400 
1646.784;0.0713;-0.0088;0.9946;0.0000;0.0000;0.0000;-3.6420;-4.6143;-0.9723;34.7400 
1646.784;0.0713;-0.0088;0.9946;0.0000;0.0000;0.0000;-3.6310;-4.6143;-0.9778;34.7400 
1646.784;0.0713;-0.0088;0.9946;0.0000;0.0000;0.0000;-3.6200;-4.6143;-0.9833;34.7900 
1646.784;0.0713;-0.0088;0.9946;0.0000;0.0000;0.0000;-3.6090;-4.6088;-0.9943;34.7900 
1646.784;0.0713;-0.0088;0.9941;0.0000;0.0000;0.0000;-3.6035;-4.6088;-0.9998;34.7500 
1646.784;0.0713;-0.0088;0.9941;0.0000;0.0000;0.0000;-3.5925;-4.6088;-1.0052;34.7500 
1646.784;0.0713;-0.0088;0.9941;0.0000;0.0000;0.0000;-3.5815;-4.6088;-1.0107;34.8000 
1646.784;0.0713;-0.0088;0.9941;0.0000;0.0000;0.0000;-3.5760;-4.6088;-1.0217;34.8000 
1646.784;0.0713;-0.0088;0.9941;0.0000;0.0000;0.0000;-3.5651;-4.6033;-1.0272;34.7300 
1646.784;0.0713;-0.0088;0.9941;0.0000;0.0000;0.0000;-3.5541;-4.6033;-1.0327;34.7300 
1646.784;0.0713;-0.0088;0.9941;0.0000;0.0000;0.0000;-3.5486;-4.6033;-1.0382;34.7700 
1646.784;0.0713;-0.0088;0.9941;0.0000;0.0000;0.0000;-3.5376;-4.6033;-1.0437;34.7700 
1646.784;0.0713;-0.0088;0.9941;0.0000;0.0000;0.0000;-3.5266;-4.5978;-1.0492;34.7300 
1646.784;0.0713;-0.0088;0.9941;0.0000;0.0000;0.0000;-3.5211;-4.5978;-1.0547;34.7300 
1646.784;0.0713;-0.0088;0.9941;0.0000;0.0000;0.0000;-3.5101;-4.5978;-1.0602;34.7500 
1646.784;0.0713;-0.0088;0.9941;0.0000;0.0000;0.0000;-3.4991;-4.5978;-1.0657;34.7500 
1646.784;0.0713;-0.0088;0.9941;0.0000;0.0000;0.0000;-3.4937;-4.5923;-1.0712;34.8000 
1646.784;0.0713;-0.0088;0.9941;0.0000;0.0000;0.0000;-3.4827;-4.5923;-1.0822;34.8000 
1646.784;0.0713;-0.0088;0.9941;0.0000;0.0000;0.0000;-3.4717;-4.5923;-1.0876;34.8000 
1646.784;0.0713;-0.0088;0.9941;0.0000;0.0000;0.0000;-3.4662;-4.5923;-1.0931;34.8600 
1646.784;0.0713;-0.0088;0.9941;0.0000;0.0000;0.0000;-3.4552;-4.5868;-1.1041;34.8600 
1646.784;0.0713;-0.0088;0.9941;0.0000;0.0000;0.0000;-3.4442;-4.5868;-1.1151;34.8000 
1646.784;0.0713;-0.0088;0.9941;0.0000;0.0000;0.0000;-3.4387;-4.5868;-1.1206;34.8000 
1646.784;0.0713;-0.0088;0.9941;0.0000;0.0000;0.0000;-3.4277;-4.5868;-1.1261;34.7900 
1646.794;0.0713;-0.0088;0.9941;0.0000;0.0000;0.0000;-3.4222;-4.5813;-1.1371;34.7900 
1646.794;0.0713;-0.0088;0.9941;0.0000;0.0000;0.0000;-3.4113;-4.5813;-1.1426;34.6900 
1646.794;0.0713;-0.0088;0.9941;0.0000;0.0000;0.0000;-3.4003;-4.5813;-1.1481;34.6900 
1646.794;0.0713;-0.0088;0.9941;0.0000;0.0000;0.0000;-3.3948;-4.5813;-1.1536;34.8100 
1646.794;0.0713;-0.0088;0.9941;0.0000;0.0000;0.0000;-3.3838;-4.5813;-1.1646;34.8100 
1646.794;0.0713;-0.0088;0.9941;0.0000;0.0000;0.0000;-3.3783;-4.5758;-1.1700;34.7300 
1646.794;0.0713;-0.0088;0.9941;0.0000;0.0000;0.0000;-3.3673;-4.5758;-1.1755;34.7300 
1646.794;0.0713;-0.0088;0.9941;0.0000;0.0000;0.0000;-3.3618;-4.5758;-1.1810;34.7500 
1646.794;0.0713;-0.0088;0.9941;0.0000;0.0000;0.0000;-3.3508;-4.5758;-1.1865;34.7500 
1646.794;0.0713;-0.0088;0.9941;0.0000;0.0000;0.0000;-3.3398;-4.5703;-1.1920;34.7500 
1646.794;0.0713;-0.0088;0.9941;0.0000;0.0000;0.0000;-3.3344;-4.5703;-1.1975;34.8100 
1646.794;0.0713;-0.0088;0.9941;0.0000;0.0000;0.0000;-3.3234;-4.5703;-1.2030;34.8100 
1646.794;0.0708;-0.0088;0.9941;0.0000;0.0000;0.0000;-3.3179;-4.5703;-1.2085;34.7100 
1646.794;0.0708;-0.0088;0.9941;0.0000;0.0000;0.0000;-3.3069;-4.5648;-1.2140;34.7100 
1646.794;0.0708;-0.0088;0.9941;0.0000;0.0000;0.0000;-3.3014;-4.5648;-1.2195;34.7600 
1646.794;0.0708;-0.0088;0.9941;0.0000;0.0000;0.0000;-3.2904;-4.5648;-1.2250;34.7600 
1646.794;0.0708;-0.0088;0.9941;0.0000;0.0000;0.0000;-3.2849;-4.5648;-1.2305;34.7200 
1646.794;0.0708;-0.0088;0.9941;0.0000;0.0000;0.0000;-3.2739;-4.5593;-1.2360;34.7200 
1646.794;0.0708;-0.0088;0.9941;0.0000;0.0000;0.0000;-3.2684;-4.5593;-1.2360;34.8300 
1646.794;0.0708;-0.0088;0.9941;0.0000;0.0000;0.0000;-3.2574;-4.5593;-1.2415;34.8300 
1646.794;0.0713;-0.0083;0.9941;0.0000;0.0000;0.0000;-3.2465;-4.5593;-1.2469;34.7800 
1646.794;0.0713;-0.0083;0.9941;0.0000;0.0000;0.0000;-3.2410;-4.5593;-1.2469;34.7800 
1646.794;0.0713;-0.0083;0.9941;0.0000;0.0000;0.0000;-3.2300;-4.5538;-1.2524;34.8300 
1646.794;0.0713;-0.0083;0.9941;0.0000;0.0000;0.0000;-3.2245;-4.5538;-1.2524;34.8300 
1646.794;0.0713;-0.0083;0.9941;0.0000;0.0000;0.0000;-3.2135;-4.5538;-1.2524;34.8400 
1646.794;0.0713;-0.0083;0.9941;0.0000;0.0000;0.0000;-3.2080;-4.5538;-1.2579;34.8400 
1646.794;0.0713;-0.0083;0.9941;0.0000;0.0000;0.0000;-3.1970;-4.5483;-1.2579;34.8400 
1646.794;0.0713;-0.0083;0.9941;0.0000;0.0000;0.0000;-3.1915;-4.5483;-1.2579;34.7100 
1646.794;0.0713;-0.0088;0.9946;0.0000;0.0000;0.0000;-3.1805;-4.5483;-1.2579;34.7100 
1646.794;0.0713;-0.0088;0.9946;0.0000;0.0000;0.0000;-3.1750;-4.5483;-1.2579;34.7800 
1646.794;0.0713;-0.0088;0.9946;0.0000;0.0000;0.0000;-3.1696;-4.5428;-1.2634;34.7800 
1646.814;0.0713;-0.0088;0.9946;0.0000;0.0000;0.0000;-3.1586;-4.5428;-1.2634;34.8100 
1646.814;0.0713;-0.0088;0.9946;0.0000;0.0000;0.0000;-3.1531;-4.5428;-1.2634;34.8100 
1646.814;0.0713;-0.0088;0.9946;0.0000;0.0000;0.0000;-3.1421;-4.5428;-1.2689;34.7800 
1646.814;0.0713;-0.0088;0.9946;0.0000;0.0000;0.0000;-3.1366;-4.5374;-1.2689;34.7800 
1646.814;0.0713;-0.0088;0.9946;0.0000;0.0000;0.0000;-3.1256;-4.5374;-1.2744;34.7800 
1646.814;0.0713;-0.0083;0.9946;0.0000;0.0000;0.0000;-3.1201;-4.5374;-1.2744;34.7800 
1646.814;0.0713;-0.0083;0.9946;0.0000;0.0000;0.0000;-3.1091;-4.5374;-1.2799;34.7600 
1646.814;0.0713;-0.0083;0.9946;0.0000;0.0000;0.0000;-3.1036;-4.5374;-1.2799;34.7600 
1646.814;0.0713;-0.0083;0.9946;0.0000;0.0000;0.0000;-3.0927;-4.5319;-1.2854;34.8100 
1646.814;0.0713;-0.0083;0.9946;0.0000;0.0000;0.0000;-3.0872;-4.5319;-1.2909;34.8100 
1646.814;0.0713;-0.0083;0.9946;0.0000;0.0000;0.0000;-3.0817;-4.5319;-1.2909;34.7700 
1646.814;0.0713;-0.0083;0.9946;0.0000;0.0000;0.0000;-3.0707;-4.5319;-1.2964;34.7700 
1647.674;0.0713;-0.0083;0.9946;0.0000;0.0000;0.0000;-3.0652;-4.5264;-1.3019;34.7700 
1647.674;0.0713;-0.0083;0.9951;0.0000;0.0000;0.0000;-3.0542;-4.5264;-1.3019;34.8200 
1647.674;0.0713;-0.0083;0.9951;0.0000;0.0000;0.0000;-3.0487;-4.5264;-1.3074;34.8200 
1647.674;0.0713;-0.0083;0.9951;0.0000;0.0000;0.0000;-3.0432;-4.5264;-1.3129;34.7300 
1647.674;0.0713;-0.0083;0.9951;0.0000;0.0000;0.0000;-3.0322;-4.5264;-1.3184;34.7300 
1647.674;0.0713;-0.0083;0.9951;0.0000;0.0000;0.0000;-3.0267;-4.5209;-1.3239;34.8200 
1647.674;0.0713;-0.0083;0.9951;0.0000;0.0000;0.0000;-3.0157;-4.5209;-1.3239;34.8200 
1647.674;0.0713;-0.0083;0.9951;0.0000;0.0000;0.0000;-3.0103;-4.5209;-1.3293;34.7500 
1647.674;0.0713;-0.0083;0.9951;0.0000;0.0000;0.0000;-3.0048;-4.5209;-1.3348;34.7500 
1647.674;0.0708;-0.0088;0.9951;0.0000;0.0000;0.0000;-2.9938;-4.5209;-1.3403;34.7700 
1647.674;0.0708;-0.0088;0.9951;0.0000;0.0000;0.0000;-2.9883;-4.5154;-1.3458;34.7700 
1647.674;0.0708;-0.0088;0.9951;0.0000;0.0000;0.0000;-2.9773;-4.5154;-1.3568;34.7700 
1647.674;0.0708;-0.0088;0.9951;0.0000;0.0000;0.0000;-2.9718;-4.5154;-1.3623;34.7700 
1647.674;0.0708;-0.0088;0.9951;0.0000;0.0000;0.0000;-2.9663;-4.5154;-1.3678;34.9000 
1647.674;0.0708;-0.0088;0.9951;0.0000;0.0000;0.0000;-2.9553;-4.5099;-1.3788;34.9000 
1647.674;0.0708;-0.0088;0.9951;0.0000;0.0000;0.0000;-2.9498;-4.5099;-1.3843;34.9000 
1647.674;0.0708;-0.0088;0.9951;0.0000;0.0000;0.0000;-2.9443;-4.5099;-1.3898;34.8100 
1647.674;0.0703;-0.0088;0.9951;0.0000;0.0000;0.0000;-2.9333;-4.5099;-1.3953;34.8100 
1647.674;0.0703;-0.0088;0.9951;0.0000;0.0000;0.0000;-2.9279;-4.5099;-1.4008;34.8000 
1647.694;0.0703;-0.0088;0.9951;0.0000;0.0000;0.0000;-2.9224;-4.5044;-1.4063;34.8000 
1647.694;0.0703;-0.0088;0.9951;0.0000;0.0000;0.0000;-2.9114;-4.5044;-1.4063;34.7500 
1647.694;0.0703;-0.0088;0.9951;0.0000;0.0000;0.0000;-2.9059;-4.5044;-1.4117;34.7500 
1647.694;0.0703;-0.0088;0.9951;0.0000;0.0000;0.0000;-2.9004;-4.5044;-1.4117;34.7900 
1647.694;0.0703;-0.0088;0.9951;0.0000;0.0000;0.0000;-2.8894;-4.4989;-1.4172;34.7900 
1647.694;0.0703;-0.0088;0.9951;0.0000;0.0000;0.0000;-2.8839;-4.4989;-1.4227;34.7800 
1647.694;0.0698;-0.0088;0.9951;0.0000;0.0000;0.0000;-2.8784;-4.4989;-1.4282;34.7800 
1647.694;0.0698;-0.0088;0.9951;0.0000;0.0000;0.0000;-2.8674;-4.4989;-1.4282;34.7500 
1647.694;0.0698;-0.0088;0.9951;0.0000;0.0000;0.0000;-2.8619;-4.4934;-1.4337;34.7500 
1647.694;0.0698;-0.0088;0.9951;0.0000;0.0000;0.0000;-2.8564;-4.4934;-1.4392;34.7800 
1647.694;0.0698;-0.0088;0.9951;0.0000;0.0000;0.0000;-2.8510;-4.4934;-1.4392;34.7800 
1647.694;0.0698;-0.0088;0.9951;0.0000;0.0000;0.0000;-2.8400;-4.4934;-1.4447;34.8100 
1647.694;0.0698;-0.0088;0.9951;0.0000;0.0000;0.0000;-2.8345;-4.4879;-1.4447;34.8100 
1647.694;0.0698;-0.0088;0.9951;0.0000;0.0000;0.0000;-2.8290;-4.4879;-1.4502;34.8100 
1647.694;0.0698;-0.0088;0.9946;0.0000;0.0000;0.0000;-2.8180;-4.4879;-1.4502;34.7500 
1647.694;0.0698;-0.0088;0.9946;0.0000;0.0000;0.0000;-2.8125;-4.4879;-1.4502;34.7500 
1647.694;0.0698;-0.0088;0.9946;0.0000;0.0000;0.0000;-2.8070;-4.4824;-1.4557;34.7200 
1647.694;0.0698;-0.0088;0.9946;0.0000;0.0000;0.0000;-2.8015;-4.4824;-1.4557;34.7200 
1647.694;0.0698;-0.0088;0.9946;0.0000;0.0000;0.0000;-2.7905;-4.4824;-1.4612;34.8100 
1647.694;0.0698;-0.0088;0.9946;0.0000;0.0000;0.0000;-2.7850;-4.4824;-1.4612;34.8100 
1647.694;0.0698;-0.0088;0.9946;0.0000;0.0000;0.0000;-2.7795;-4.4769;-1.4667;34.7800 
1647.694;0.0698;-0.0088;0.9946;0.0000;0.0000;0.0000;-2.7740;-4.4769;-1.4667;34.7800 
1647.694;0.0703;-0.0088;0.9941;0.0000;0.0000;0.0000;-2.7631;-4.4769;-1.4667;34.7900 
1647.694;0.0703;-0.0088;0.9941;0.0000;0.0000;0.0000;-2.7576;-4.4769;-1.4722;34.7900 
1647.694;0.0703;-0.0088;0.9941;0.0000;0.0000;0.0000;-2.7521;-4.4714;-1.4722;34.8000 
1647.694;0.0703;-0.0088;0.9941;0.0000;0.0000;0.0000;-2.7466;-4.4714;-1.4722;34.8000 
1647.694;0.0703;-0.0088;0.9941;0.0000;0.0000;0.0000;-2.7356;-4.4714;-1.4777;34.7800 
1647.694;0.0703;-0.0088;0.9941;0.0000;0.0000;0.0000;-2.7301;-4.4714;-1.4777;34.7800 
1647.694;0.0703;-0.0088;0.9941;0.0000;0.0000;0.0000;-2.7246;-4.4714;-1.4777;34.7200 
1647.694;0.0703;-0.0088;0.9941;0.0000;0.0000;0.0000;-2.7191;-4.4659;-1.4777;34.7200 
1647.694;0.0708;-0.0088;0.9941;0.0000;0.0000;0.0000;-2.7136;-4.4659;-1.4832;34.7200 
1647.713;0.0708;-0.0088;0.9941;0.0000;0.0000;0.0000;-2.7026;-4.4659;-1.4832;34.8000 
1647.713;0.0708;-0.0088;0.9941;0.0000;0.0000;0.0000;-2.6971;-4.4659;-1.4886;34.8000 
1647.713;0.0708;-0.0088;0.9941;0.0000;0.0000;0.0000;-2.6917;-4.4659;-1.4886;34.7600 
1647.713;0.0708;-0.0088;0.9941;0.0000;0.0000;0.0000;-2.6862;-4.4604;-1.4941;34.7600 
1647.713;0.0708;-0.0088;0.9941;0.0000;0.0000;0.0000;-2.6807;-4.4604;-1.4996;34.8400 
1647.713;0.0708;-0.0088;0.9941;0.0000;0.0000;0.0000;-2.6697;-4.4604;-1.5051;34.8400 
1647.713;0.0708;-0.0088;0.9941;0.0000;0.0000;0.0000;-2.6642;-4.4604;-1.5106;34.7200 
1647.713;0.0708;-0.0083;0.9941;0.0000;0.0000;0.0000;-2.6587;-4.4604;-1.5161;34.7200 
1647.713;0.0708;-0.0083;0.9941;0.0000;0.0000;0.0000;-2.6532;-4.4550;-1.5271;34.7600 
1647.713;0.0708;-0.0083;0.9941;0.0000;0.0000;0.0000;-2.6477;-4.4550;-1.5326;34.7600 
1647.713;0.0708;-0.0083;0.9941;0.0000;0.0000;0.0000;-2.6367;-4.4550;-1.5381;34.7500 
1647.713;0.0708;-0.0083;0.9941;0.0000;0.0000;0.0000;-2.6312;-4.4550;-1.5436;34.7500 
1647.713;0.0708;-0.0083;0.9941;0.0000;0.0000;0.0000;-2.6257;-4.4550;-1.5491;34.7400 
1647.713;0.0708;-0.0083;0.9941;0.0000;0.0000;0.0000;-2.6202;-4.4495;-1.5546;34.7400 
1647.713;0.0708;-0.0083;0.9941;0.0000;0.0000;0.0000;-2.6147;-4.4495;-1.5601;34.7700 
1647.713;0.0708;-0.0083;0.9941;0.0000;0.0000;0.0000;-2.6038;-4.4495;-1.5656;34.7700 
1647.713;0.0708;-0.0083;0.9941;0.0000;0.0000;0.0000;-2.5983;-4.4495;-1.5710;34.7700 
1647.713;0.0708;-0.0083;0.9941;0.0000;0.0000;0.0000;-2.5928;-4.4495;-1.5765;34.7900 
1647.713;0.0708;-0.0083;0.9941;0.0000;0.0000;0.0000;-2.5873;-4.4495;-1.5765;34.7900 
1647.713;0.0708;-0.0083;0.9941;0.0000;0.0000;0.0000;-2.5818;-4.4440;-1.5820;34.7600 
1647.713;0.0708;-0.0083;0.9941;0.0000;0.0000;0.0000;-2.5763;-4.4440;-1.5875;34.7600 
1647.713;0.0708;-0.0083;0.9941;0.0000;0.0000;0.0000;-2.5708;-4.4440;-1.5875;34.7900 
1647.713;0.0708;-0.0083;0.9941;0.0000;0.0000;0.0000;-2.5598;-4.4440;-1.5930;34.7900 
1647.713;0.0708;-0.0083;0.9941;0.0000;0.0000;0.0000;-2.5543;-4.4440;-1.5985;34.7500 
1647.713;0.0708;-0.0083;0.9941;0.0000;0.0000;0.0000;-2.5488;-4.4385;-1.5985;34.7500 
1647.713;0.0708;-0.0083;0.9941;0.0000;0.0000;0.0000;-2.5433;-4.4385;-1.6040;34.7900 
1647.713;0.0708;-0.0083;0.9941;0.0000;0.0000;0.0000;-2.5378;-4.4385;-1.6040;34.7900 
1647.713;0.0708;-0.0083;0.9941;0.0000;0.0000;0.0000;-2.5323;-4.4385;-1.6095;34.7600 
1647.713;0.0708;-0.0083;0.9941;0.0000;0.0000;0.0000;-2.5269;-4.4385;-1.6095;34.7600 
1647.713;0.0708;-0.0083;0.9941;0.0000;0.0000;0.0000;-2.5159;-4.4330;-1.6150;34.7300 
1647.733;0.0708;-0.0083;0.9941;0.0000;0.0000;0.0000;-2.5104;-4.4330;-1.6150;34.7300 
1647.733;0.0703;-0.0083;0.9941;0.0000;0.0000;0.0000;-2.5049;-4.4330;-1.6150;34.7300 
1647.733;0.0703;-0.0083;0.9941;0.0000;0.0000;0.0000;-2.4994;-4.4330;-1.6205;34.7700 
1647.733;0.0703;-0.0083;0.9941;0.0000;0.0000;0.0000;-2.4939;-4.4330;-1.6205;34.7700 
1647.733;0.0703;-0.0083;0.9941;0.0000;0.0000;0.0000;-2.4884;-4.4275;-1.6260;34.6900 
1647.733;0.0703;-0.0083;0.9941;0.0000;0.0000;0.0000;-2.4829;-4.4275;-1.6260;34.6900 
1647.733;0.0703;-0.0083;0.9941;0.0000;0.0000;0.0000;-2.4774;-4.4275;-1.6315;34.7500 
1647.733;0.0703;-0.0083;0.9941;0.0000;0.0000;0.0000;-2.4719;-4.4275;-1.6315;34.7500 
1647.733;0.0703;-0.0083;0.9941;0.0000;0.0000;0.0000;-2.4609;-4.4275;-1.6370;34.7600 
1647.733;0.0703;-0.0088;0.9941;0.0000;0.0000;0.0000;-2.4554;-4.4220;-1.6425;34.7600 
1647.733;0.0703;-0.0088;0.9941;0.0000;0.0000;0.0000;-2.4500;-4.4220;-1.6479;34.7100 
1647.733;0.0703;-0.0088;0.9941;0.0000;0.0000;0.0000;-2.4445;-4.4220;-1.6479;34.7100 
1647.733;0.0703;-0.0088;0.9941;0.0000;0.0000;0.0000;-2.4390;-4.4220;-1.6534;34.7400 
1647.733;0.0703;-0.0088;0.9941;0.0000;0.0000;0.0000;-2.4335;-4.4220;-1.6589;34.7400 
1647.733;0.0703;-0.0088;0.9941;0.0000;0.0000;0.0000;-2.4280;-4.4165;-1.6644;34.7000 
1647.733;0.0703;-0.0088;0.9941;0.0000;0.0000;0.0000;-2.4225;-4.4165;-1.6699;34.7000 
1647.733;0.0703;-0.0088;0.9941;0.0000;0.0000;0.0000;-2.4170;-4.4165;-1.6754;34.7900 
1647.733;0.0703;-0.0088;0.9941;0.0000;0.0000;0.0000;-2.4115;-4.4165;-1.6809;34.7900 
1647.733;0.0703;-0.0088;0.9941;0.0000;0.0000;0.0000;-2.4060;-4.4165;-1.6864;34.7900 
1647.733;0.0703;-0.0088;0.9941;0.0000;0.0000;0.0000;-2.4005;-4.4165;-1.6919;34.7900 
1647.733;0.0703;-0.0088;0.9941;0.0000;0.0000;0.0000;-2.3950;-4.4110;-1.7029;34.7900 
1647.733;0.0703;-0.0088;0.9941;0.0000;0.0000;0.0000;-2.3895;-4.4110;-1.7084;34.7900 
1647.733;0.0703;-0.0088;0.9941;0.0000;0.0000;0.0000;-2.3840;-4.4110;-1.7084;34.7900 
1647.733;0.0703;-0.0088;0.9941;0.0000;0.0000;0.0000;-2.3785;-4.4110;-1.7139;34.7200 
1647.733;0.0703;-0.0093;0.9941;0.0000;0.0000;0.0000;-2.3730;-4.4110;-1.7194;34.7200 
1647.733;0.0703;-0.0093;0.9941;0.0000;0.0000;0.0000;-2.3676;-4.4055;-1.7249;34.7500 
1647.733;0.0703;-0.0093;0.9941;0.0000;0.0000;0.0000;-2.3621;-4.4055;-1.7303;34.7500 
1647.733;0.0703;-0.0093;0.9941;0.0000;0.0000;0.0000;-2.3566;-4.4055;-1.7303;34.7700 
1647.733;0.0703;-0.0093;0.9941;0.0000;0.0000;0.0000;-2.3511;-4.4055;-1.7358;34.7700 
1647.733;0.0703;-0.0093;0.9941;0.0000;0.0000;0.0000;-2.3456;-4.4055;-1.7358;34.7500 
1647.823;0.0703;-0.0093;0.9941;0.0000;0.0000;0.0000;-2.3401;-4.4055;-1.7358;34.7500 
1647.823;0.0703;-0.0093;0.9941;0.0000;0.0000;0.0000;-2.3346;-4.4000;-1.7358;34.7400 
1647.823;0.0708;-0.0088;0.9941;0.0000;0.0000;0.0000;-2.3291;-4.4000;-1.7413;34.7400 
1647.823;0.0708;-0.0088;0.9941;0.0000;0.0000;0.0000;-2.3236;-4.4000;-1.7413;34.7800 
1647.823;0.0708;-0.0088;0.9941;0.0000;0.0000;0.0000;-2.3181;-4.4000;-1.7413;34.7800 
1647.823;0.0708;-0.0088;0.9941;0.0000;0.0000;0.0000;-2.3126;-4.4000;-1.7413;34.7800 
1647.823;0.0708;-0.0088;0.9941;0.0000;0.0000;0.0000;-2.3071;-4.3945;-1.7468;34.7800 
1647.823;0.0708;-0.0088;0.9941;0.0000;0.0000;0.0000;-2.3016;-4.3945;-1.7468;34.7800 
1647.823;0.0708;-0.0088;0.9941;0.0000;0.0000;0.0000;-2.2961;-4.3945;-1.7468;34.8400 
1647.823;0.0708;-0.0088;0.9941;0.0000;0.0000;0.0000;-2.2906;-4.3945;-1.7523;34.8400 
1647.823;0.0708;-0.0088;0.9946;0.0000;0.0000;0.0000;-2.2852;-4.3945;-1.7523;34.8100 
1647.823;0.0708;-0.0088;0.9946;0.0000;0.0000;0.0000;-2.2797;-4.3945;-1.7523;34.8100 
1647.823;0.0708;-0.0088;0.9946;0.0000;0.0000;0.0000;-2.2742;-4.3890;-1.7523;34.7500 
1647.823;0.0708;-0.0088;0.9946;0.0000;0.0000;0.0000;-2.2687;-4.3890;-1.7578;34.7500 
1647.823;0.0708;-0.0088;0.9946;0.0000;0.0000;0.0000;-2.2632;-4.3890;-1.7578;34.7500 
1647.823;0.0708;-0.0088;0.9946;0.0000;0.0000;0.0000;-2.2577;-4.3890;-1.7578;34.7500 
1647.823;0.0708;-0.0088;0.9946;0.0000;0.0000;0.0000;-2.2522;-4.3890;-1.7578;34.8100 
1647.823;0.0708;-0.0088;0.9946;0.0000;0.0000;0.0000;-2.2467;-4.3890;-1.7633;34.8100 
1647.823;0.0708;-0.0083;0.9946;0.0000;0.0000;0.0000;-2.2412;-4.3835;-1.7633;34.7600 
1647.823;0.0708;-0.0083;0.9946;0.0000;0.0000;0.0000;-2.2357;-4.3835;-1.7688;34.7600 
1647.823;0.0708;-0.0083;0.9946;0.0000;0.0000;0.0000;-2.2302;-4.3835;-1.7743;34.7600 
1647.823;0.0708;-0.0083;0.9946;0.0000;0.0000;0.0000;-2.2247;-4.3835;-1.7798;34.7600 
1647.823;0.0708;-0.0083;0.9946;0.0000;0.0000;0.0000;-2.2192;-4.3835;-1.7853;34.7600 
1647.823;0.0708;-0.0083;0.9946;0.0000;0.0000;0.0000;-2.2137;-4.3835;-1.7908;34.7900 
1647.823;0.0708;-0.0083;0.9946;0.0000;0.0000;0.0000;-2.2083;-4.3835;-1.7963;34.7900 
1647.823;0.0708;-0.0083;0.9946;0.0000;0.0000;0.0000;-2.2028;-4.3781;-1.8018;34.7100 
1647.823;0.0708;-0.0078;0.9946;0.0000;0.0000;0.0000;-2.1973;-4.3781;-1.8073;34.7100 
1647.823;0.0708;-0.0078;0.9946;0.0000;0.0000;0.0000;-2.1918;-4.3781;-1.8127;34.7600 
1647.823;0.0708;-0.0078;0.9946;0.0000;0.0000;0.0000;-2.1863;-4.3781;-1.8182;34.7600 
1647.823;0.0708;-0.0078;0.9946;0.0000;0.0000;0.0000;-2.1808;-4.3781;-1.8237;34.7700 
1647.823;0.0708;-0.0078;0.9946;0.0000;0.0000;0.0000;-2.1753;-4.3781;-1.8292;34.7700 
1648.013;0.0708;-0.0078;0.9946;0.0000;0.0000;0.0000;-2.1753;-4.3726;-1.8347;34.7900 
1648.013;0.0708;-0.0078;0.9946;0.0000;0.0000;0.0000;-2.1698;-4.3726;-1.8402;34.7900 
1648.013;0.0708;-0.0078;0.9946;0.0000;0.0000;0.0000;-2.1643;-4.3726;-1.8457;34.7200 
1648.013;0.0708;-0.0078;0.9946;0.0000;0.0000;0.0000;-2.1588;-4.3726;-1.8512;34.7200 
1648.013;0.0708;-0.0078;0.9946;0.0000;0.0000;0.0000;-2.1533;-4.3726;-1.8567;34.7700 
1648.013;0.0708;-0.0078;0.9946;0.0000;0.0000;0.0000;-2.1478;-4.3726;-1.8622;34.7700 
1648.013;0.0708;-0.0078;0.9946;0.0000;0.0000;0.0000;-2.1423;-4.3726;-1.8677;34.7700 
1648.013;0.0708;-0.0078;0.9946;0.0000;0.0000;0.0000;-2.1368;-4.3671;-1.8732;34.7500 
1648.013;0.0708;-0.0078;0.9946;0.0000;0.0000;0.0000;-2.1313;-4.3671;-1.8732;34.7500 
1648.013;0.0708;-0.0078;0.9946;0.0000;0.0000;0.0000;-2.1259;-4.3671;-1.8787;34.8200 
1648.013;0.0708;-0.0078;0.9946;0.0000;0.0000;0.0000;-2.1204;-4.3671;-1.8842;34.8200 
1648.013;0.0708;-0.0083;0.9951;0.0000;0.0000;0.0000;-2.1149;-4.3671;-1.8842;34.8100 
1648.013;0.0708;-0.0083;0.9951;0.0000;0.0000;0.0000;-2.1094;-4.3671;-1.8896;34.8100 
1648.013;0.0708;-0.0083;0.9951;0.0000;0.0000;0.0000;-2.1039;-4.3671;-1.8951;34.8100 
1648.013;0.0708;-0.0083;0.9951;0.0000;0.0000;0.0000;-2.1039;-4.3616;-1.9006;34.8100 
1648.013;0.0708;-0.0083;0.9951;0.0000;0.0000;0.0000;-2.0984;-4.3616;-1.9061;34.7300 
1648.013;0.0708;-0.0083;0.9951;0.0000;0.0000;0.0000;-2.0929;-4.3616;-1.9116;34.7300 
1648.013;0.0708;-0.0083;0.9951;0.0000;0.0000;0.0000;-2.0874;-4.3616;-1.9171;34.7600 
1648.013;0.0708;-0.0083;0.9951;0.0000;0.0000;0.0000;-2.0819;-4.3616;-1.9226;34.7600 
1648.013;0.0708;-0.0083;0.9951;0.0000;0.0000;0.0000;-2.0764;-4.3616;-1.9281;34.8100 
1648.013;0.0708;-0.0083;0.9951;0.0000;0.0000;0.0000;-2.0709;-4.3616;-1.9336;34.8100 
1648.013;0.0708;-0.0083;0.9951;0.0000;0.0000;0.0000;-2.0654;-4.3561;-1.9391;34.8000 
1648.013;0.0708;-0.0083;0.9951;0.0000;0.0000;0.0000;-2.0599;-4.3561;-1.9446;34.8000 
1648.013;0.0708;-0.0083;0.9951;0.0000;0.0000;0.0000;-2.0599;-4.3561;-1.9446;34.8000 
1648.013;0.0708;-0.0083;0.9951;0.0000;0.0000;0.0000;-2.0544;-4.3561;-1.9501;34.7500 
1648.013;0.0708;-0.0083;0.9951;0.0000;0.0000;0.0000;-2.0490;-4.3561;-1.9556;34.7500 
1648.013;0.0708;-0.0083;0.9951;0.0000;0.0000;0.0000;-2.0435;-4.3561;-1.9611;34.7900 
1648.013;0.0708;-0.0088;0.9951;0.0000;0.0000;0.0000;-2.0380;-4.3506;-1.9666;34.7900 
1648.013;0.0708;-0.0088;0.9951;0.0000;0.0000;0.0000;-2.0325;-4.3506;-1.9666;34.7800 
1648.013;0.0708;-0.0088;0.9951;0.0000;0.0000;0.0000;-2.0270;-4.3506;-1.9720;34.7800 
1648.023;0.0708;-0.0088;0.9951;0.0000;0.0000;0.0000;-2.0270;-4.3506;-1.9775;34.7800 
1648.023;0.0708;-0.0088;0.9951;0.0000;0.0000;0.0000;-2.0215;-4.3506;-1.9830;34.7800 
1648.023;0.0708;-0.0088;0.9951;0.0000;0.0000;0.0000;-2.0160;-4.3506;-1.9830;34.7700 
1648.023;0.0708;-0.0088;0.9951;0.0000;0.0000;0.0000;-2.0105;-4.3506;-1.9885;34.7700 
1648.023;0.0708;-0.0088;0.9951;0.0000;0.0000;0.0000;-2.0050;-4.3506;-1.9940;34.8200 
1648.023;0.0708;-0.0088;0.9951;0.0000;0.0000;0.0000;-1.9995;-4.3451;-1.9940;34.8200 
1648.023;0.0708;-0.0088;0.9951;0.0000;0.0000;0.0000;-1.9995;-4.3451;-1.9995;34.7700 
1648.023;0.0708;-0.0088;0.9951;0.0000;0.0000;0.0000;-1.9940;-4.3451;-1.9995;34.7700 
1648.023;0.0708;-0.0088;0.9951;0.0000;0.0000;0.0000;-1.9885;-4.3451;-1.9995;34.7700 
1648.023;0.0708;-0.0088;0.9951;0.0000;0.0000;0.0000;-1.9830;-4.3451;-1.9995;34.7700 
1648.023;0.0708;-0.0088;0.9951;0.0000;0.0000;0.0000;-1.9775;-4.3451;-1.9995;34.7700 
1648.023;0.0708;-0.0088;0.9951;0.0000;0.0000;0.0000;-1.9775;-4.3396;-1.9995;34.8500 
1648.023;0.0708;-0.0088;0.9951;0.0000;0.0000;0.0000;-1.9720;-4.3396;-1.9995;34.8500 
1648.023;0.0708;-0.0088;0.9946;0.0000;0.0000;0.0000;-1.9666;-4.3396;-1.9995;34.7700 
1648.023;0.0708;-0.0088;0.9946;0.0000;0.0000;0.0000;-1.9611;-4.3396;-1.9995;34.7700 
1648.023;0.0708;-0.0088;0.9946;0.0000;0.0000;0.0000;-1.9556;-4.3396;-1.9995;34.8100 
1648.023;0.0708;-0.0088;0.9946;0.0000;0.0000;0.0000;-1.9556;-4.3396;-1.9995;34.8100 
1648.023;0.0708;-0.0088;0.9946;0.0000;0.0000;0.0000;-1.9501;-4.3396;-1.9995;34.7600 
1648.023;0.0708;-0.0088;0.9946;0.0000;0.0000;0.0000;-1.9446;-4.3341;-1.9995;34.7600 
1648.023;0.0708;-0.0088;0.9946;0.0000;0.0000;0.0000;-1.9391;-4.3341;-1.9995;34.8200 
1648.023;0.0708;-0.0088;0.9946;0.0000;0.0000;0.0000;-1.9336;-4.3341;-1.9995;34.8200 
1648.023;0.0708;-0.0088;0.9941;0.0000;0.0000;0.0000;-1.9336;-4.3341;-1.9995;34.7200 
1648.023;0.0708;-0.0088;0.9941;0.0000;0.0000;0.0000;-1.9281;-4.3341;-1.9995;34.7200 
1648.023;0.0708;-0.0088;0.9941;0.0000;0.0000;0.0000;-1.9226;-4.3341;-1.9995;34.7500 
1648.023;0.0708;-0.0088;0.9941;0.0000;0.0000;0.0000;-1.9171;-4.3341;-1.9995;34.7500 
1648.023;0.0708;-0.0088;0.9941;0.0000;0.0000;0.0000;-1.9171;-4.3286;-1.9995;34.7800 
1648.023;0.0708;-0.0088;0.9941;0.0000;0.0000;0.0000;-1.9116;-4.3286;-2.0050;34.7800 
1648.023;0.0708;-0.0088;0.9941;0.0000;0.0000;0.0000;-1.9061;-4.3286;-2.0050;34.7800 
1648.023;0.0708;-0.0088;0.9941;0.0000;0.0000;0.0000;-1.9006;-4.3286;-2.0105;34.7600 
1648.023;0.0708;-0.0088;0.9941;0.0000;0.0000;0.0000;-1.8951;-4.3286;-2.0160;34.7600 
1648.043;0.0708;-0.0088;0.9941;0.0000;0.0000;0.0000;-1.8951;-4.3286;-2.0160;34.8200 
1648.043;0.0708;-0.0088;0.9941;0.0000;0.0000;0.0000;-1.8896;-4.3286;-2.0215;34.8200 
1648.043;0.0708;-0.0088;0.9941;0.0000;0.0000;0.0000;-1.8842;-4.3286;-2.0215;34.8100 
1648.043;0.0708;-0.0088;0.9941;0.0000;0.0000;0.0000;-1.8787;-4.3231;-2.0270;34.8100 
1648.043;0.0708;-0.0088;0.9941;0.0000;0.0000;0.0000;-1.8787;-4.3231;-2.0325;34.7700 
1648.043;0.0708;-0.0088;0.9941;0.0000;0.0000;0.0000;-1.8732;-4.3231;-2.0325;34.7700 
1648.043;0.0708;-0.0088;0.9941;0.0000;0.0000;0.0000;-1.8677;-4.3231;-2.0380;34.7800 
1648.043;0.0708;-0.0088;0.9941;0.0000;0.0000;0.0000;-1.8622;-4.3231;-2.0380;34.7800 
1648.043;0.0708;-0.0088;0.9941;0.0000;0.0000;0.0000;-1.8622;-4.3231;-2.0435;34.7700 
1648.043;0.0708;-0.0088;0.9941;0.0000;0.0000;0.0000;-1.8567;-4.3231;-2.0490;34.7700 
1648.043;0.0708;-0.0088;0.9941;0.0000;0.0000;0.0000;-1.8512;-4.3231;-2.0490;34.7700 
1648.043;0.0708;-0.0088;0.9941;0.0000;0.0000;0.0000;-1.8457;-4.3176;-2.0544;34.7700 
1648.043;0.0708;-0.0088;0.9941;0.0000;0.0000;0.0000;-1.8457;-4.3176;-2.0599;34.7700 
1648.043;0.0708;-0.0088;0.9941;0.0000;0.0000;0.0000;-1.8402;-4.3176;-2.0599;34.7500 
1648.043;0.0708;-0.0088;0.9941;0.0000;0.0000;0.0000;-1.8347;-4.3176;-2.0654;34.7500 
1648.043;0.0708;-0.0088;0.9946;0.0000;0.0000;0.0000;-1.8292;-4.3176;-2.0654;34.7700 
1648.043;0.0708;-0.0088;0.9946;0.0000;0.0000;0.0000;-1.8292;-4.3176;-2.0709;34.7700 
1648.043;0.0708;-0.0088;0.9946;0.0000;0.0000;0.0000;-1.8237;-4.3176;-2.0764;34.7200 
1648.043;0.0708;-0.0088;0.9946;0.0000;0.0000;0.0000;-1.8182;-4.3176;-2.0764;34.7200 
1648.043;0.0708;-0.0088;0.9946;0.0000;0.0000;0.0000;-1.8182;-4.3121;-2.0819;34.7400 
1648.043;0.0708;-0.0088;0.9946;0.0000;0.0000;0.0000;-1.8127;-4.3121;-2.0874;34.7400 
1648.043;0.0708;-0.0088;0.9946;0.0000;0.0000;0.0000;-1.8073;-4.3121;-2.0929;34.8000 
1648.043;0.0708;-0.0088;0.9946;0.0000;0.0000;0.0000;-1.8018;-4.3121;-2.0984;34.8000 
1648.043;0.0708;-0.0083;0.9951;0.0000;0.0000;0.0000;-1.8018;-4.3121;-2.1039;34.7600 
1648.043;0.0708;-0.0083;0.9951;0.0000;0.0000;0.0000;-1.7963;-4.3121;-2.1094;34.7600 
1648.043;0.0708;-0.0083;0.9951;0.0000;0.0000;0.0000;-1.7908;-4.3121;-2.1149;34.8200 
1648.043;0.0708;-0.0083;0.9951;0.0000;0.0000;0.0000;-1.7853;-4.3121;-2.1204;34.8200 
1648.043;0.0708;-0.0083;0.9951;0.0000;0.0000;0.0000;-1.7853;-4.3066;-2.1259;34.8000 
1648.043;0.0708;-0.0083;0.9951;0.0000;0.0000;0.0000;-1.7798;-4.3066;-2.1313;34.8000 
1648.043;0.0708;-0.0083;0.9951;0.0000;0.0000;0.0000;-1.7743;-4.3066;-2.1313;34.8000 
1648.063;0.0708;-0.0083;0.9951;0.0000;0.0000;0.0000;-1.7743;-4.3066;-2.1368;34.8200 
1648.063;0.0708;-0.0083;0.9951;0.0000;0.0000;0.0000;-1.7688;-4.3066;-2.1423;34.8200 
1648.063;0.0708;-0.0083;0.9951;0.0000;0.0000;0.0000;-1.7633;-4.3066;-2.1478;34.7800 
1648.063;0.0708;-0.0083;0.9951;0.0000;0.0000;0.0000;-1.7578;-4.3066;-2.1588;34.7800 
1648.063;0.0708;-0.0083;0.9951;0.0000;0.0000;0.0000;-1.7578;-4.3066;-2.1643;34.7100 
1648.063;0.0708;-0.0083;0.9951;0.0000;0.0000;0.0000;-1.7523;-4.3066;-2.1698;34.7100 
1648.063;0.0708;-0.0083;0.9951;0.0000;0.0000;0.0000;-1.7468;-4.3011;-2.1753;34.8200 
1648.063;0.0708;-0.0083;0.9951;0.0000;0.0000;0.0000;-1.7468;-4.3011;-2.1863;34.8200 
1648.063;0.0708;-0.0083;0.9951;0.0000;0.0000;0.0000;-1.7413;-4.3011;-2.1918;34.9000 
1648.063;0.0708;-0.0083;0.9951;0.0000;0.0000;0.0000;-1.7358;-4.3011;-2.1973;34.9000 
1648.063;0.0708;-0.0083;0.9951;0.0000;0.0000;0.0000;-1.7358;-4.3011;-2.2028;34.7700 
1648.063;0.0708;-0.0083;0.9951;0.0000;0.0000;0.0000;-1.7303;-4.3011;-2.2028;34.7700 
1648.063;0.0708;-0.0083;0.9951;0.0000;0.0000;0.0000;-1.7249;-4.3011;-2.2028;34.7500 
1648.063;0.0708;-0.0083;0.9951;0.0000;0.0000;0.0000;-1.7194;-4.3011;-2.2083;34.7500 
1648.063;0.0708;-0.0083;0.9951;0.0000;0.0000;0.0000;-1.7194;-4.2957;-2.2083;34.7400 
1648.063;0.0708;-0.0083;0.9951;0.0000;0.0000;0.0000;-1.7139;-4.2957;-2.2083;34.7400 
1648.063;0.0708;-0.0083;0.9951;0.0000;0.0000;0.0000;-1.7084;-4.2957;-2.2083;34.7400 
1648.063;0.0708;-0.0083;0.9946;0.0000;0.0000;0.0000;-1.7084;-4.2957;-2.2137;34.7800 
1648.063;0.0708;-0.0083;0.9946;0.0000;0.0000;0.0000;-1.7029;-4.2957;-2.2192;34.7800 
1648.063;0.0708;-0.0083;0.9946;0.0000;0.0000;0.0000;-1.6974;-4.2957;-2.2192;34.8600 
1648.063;0.0708;-0.0083;0.9946;0.0000;0.0000;0.0000;-1.6974;-4.2957;-2.2247;34.8600 
1648.063;0.0708;-0.0083;0.9946;0.0000;0.0000;0.0000;-1.6919;-4.2957;-2.2247;34.7700 
1648.063;0.0708;-0.0083;0.9946;0.0000;0.0000;0.0000;-1.6864;-4.2957;-2.2302;34.7700 
1648.063;0.0708;-0.0083;0.9946;0.0000;0.0000;0.0000;-1.6864;-4.2902;-2.2302;34.8400 
1648.063;0.0708;-0.0083;0.9946;0.0000;0.0000;0.0000;-1.6809;-4.2902;-2.2357;34.8400 
1648.063;0.0708;-0.0083;0.9941;0.0000;0.0000;0.0000;-1.6754;-4.2902;-2.2412;34.7600 
1648.063;0.0708;-0.0083;0.9941;0.0000;0.0000;0.0000;-1.6754;-4.2902;-2.2412;34.7600 
1648.063;0.0708;-0.0083;0.9941;0.0000;0.0000;0.0000;-1.6699;-4.2902;-2.2412;34.7500 
1648.063;0.0708;-0.0083;0.9941;0.0000;0.0000;0.0000;-1.6644;-4.2902;-2.2412;34.7500 
1648.063;0.0708;-0.0083;0.9941;0.0000;0.0000;0.0000;-1.6644;-4.2902;-2.2412;34.8300 
1648.063;0.0708;-0.0083;0.9941;0.0000;0.0000;0.0000;-1.6589;-4.2902;-2.2467;34.8300 
1648.173;0.0708;-0.0083;0.9941;0.0000;0.0000;0.0000;-1.6534;-4.2902;-2.2467;34.8000 
1648.173;0.0708;-0.0083;0.9941;0.0000;0.0000;0.0000;-1.6534;-4.2847;-2.2467;34.8000 
1648.173;0.0708;-0.0083;0.9941;0.0000;0.0000;0.0000;-1.6479;-4.2847;-2.2522;34.8000 
1648.173;0.0708;-0.0083;0.9941;0.0000;0.0000;0.0000;-1.6479;-4.2847;-2.2522;34.7300 
1648.173;0.0708;-0.0083;0.9941;0.0000;0.0000;0.0000;-1.6425;-4.2847;-2.2522;34.7300 
1648.173;0.0708;-0.0083;0.9941;0.0000;0.0000;0.0000;-1.6370;-4.2847;-2.2522;34.7800 
1648.173;0.0708;-0.0083;0.9941;0.0000;0.0000;0.0000;-1.6370;-4.2847;-2.2577;34.7800 
1648.173;0.0708;-0.0083;0.9941;0.0000;0.0000;0.0000;-1.6315;-4.2847;-2.2577;34.7800 
1648.173;0.0708;-0.0083;0.9941;0.0000;0.0000;0.0000;-1.6260;-4.2847;-2.2632;34.7800 
1648.173;0.0708;-0.0083;0.9941;0.0000;0.0000;0.0000;-1.6260;-4.2847;-2.2632;34.7500 
1648.173;0.0703;-0.0083;0.9937;0.0000;0.0000;0.0000;-1.6205;-4.2792;-2.2687;34.7500 
1648.173;0.0703;-0.0083;0.9937;0.0000;0.0000;0.0000;-1.6150;-4.2792;-2.2742;34.7700 
1648.173;0.0703;-0.0083;0.9937;0.0000;0.0000;0.0000;-1.6150;-4.2792;-2.2797;34.7700 
1648.173;0.0703;-0.0083;0.9937;0.0000;0.0000;0.0000;-1.6095;-4.2792;-2.2797;34.7800 
1648.173;0.0703;-0.0083;0.9937;0.0000;0.0000;0.0000;-1.6095;-4.2792;-2.2852;34.7800 
1648.173;0.0703;-0.0083;0.9937;0.0000;0.0000;0.0000;-1.6040;-4.2792;-2.2906;34.7800 
1648.173;0.0703;-0.0083;0.9937;0.0000;0.0000;0.0000;-1.5985;-4.2792;-2.2961;34.7800 
1648.183;0.0703;-0.0083;0.9937;0.0000;0.0000;0.0000;-1.5985;-4.2792;-2.2961;34.7800 
1648.183;0.0703;-0.0083;0.9937;-0.0610;0.0000;0.0000;-1.5930;-4.2737;-2.3016;34.8200 
1648.183;0.0703;-0.0083;0.9937;-0.0610;0.0000;0.0000;-1.5930;-4.2737;-2.3016;34.8200 
1648.183;0.0703;-0.0083;0.9937;-0.0610;0.0000;0.0000;-1.5875;-4.2737;-2.3071;34.8100 
1648.183;0.0703;-0.0083;0.9937;-0.0610;0.0000;0.0000;-1.5820;-4.2737;-2.3126;34.8100 
1648.183;0.0703;-0.0083;0.9937;-0.0610;0.0000;0.0000;-1.5820;-4.2737;-2.3126;34.7800 
1648.183;0.0703;-0.0083;0.9937;-0.0610;0.0000;0.0000;-1.5765;-4.2737;-2.3181;34.7800 
1648.183;0.0703;-0.0083;0.9937;-0.0610;0.0000;0.0000;-1.5765;-4.2737;-2.3236;34.7900 
1648.193;0.0703;-0.0083;0.9937;-0.0610;0.0000;0.0000;-1.5710;-4.2737;-2.3236;34.7900 
1648.193;0.0703;-0.0083;0.9937;-0.0610;0.0000;0.0000;-1.5710;-4.2737;-2.3291;34.7500 
1648.193;0.0703;-0.0083;0.9937;-0.0610;0.0000;0.0000;-1.5656;-4.2682;-2.3346;34.7500 
1648.193;0.0703;-0.0083;0.9937;0.0000;0.0000;0.0000;-1.5656;-4.2682;-2.3346;34.7900 
1648.223;0.0703;-0.0083;0.9937;0.0000;0.0000;0.0000;-1.5601;-4.2682;-2.3401;34.7900 
1648.223;0.0703;-0.0083;0.9937;0.0000;0.0000;0.0000;-1.5546;-4.2682;-2.3401;34.8100 
1648.223;0.0703;-0.0083;0.9937;0.0000;0.0000;0.0000;-1.5546;-4.2682;-2.3456;34.8100 
1648.223;0.0703;-0.0083;0.9937;0.0000;0.0000;0.0000;-1.5491;-4.2682;-2.3511;34.7400 
1648.313;0.0703;-0.0083;0.9937;0.0000;0.0000;0.0000;-1.5491;-4.2682;-2.3511;34.7400 
1648.313;0.0703;-0.0083;0.9941;0.0000;0.0000;0.0000;-1.5436;-4.2682;-2.3511;34.7400 
1648.313;0.0703;-0.0083;0.9941;0.0000;0.0000;0.0000;-1.5381;-4.2627;-2.3511;34.7500 
1648.313;0.0703;-0.0083;0.9941;0.0000;0.0000;0.0000;-1.5381;-4.2627;-2.3566;34.7500 
1648.333;0.0703;-0.0083;0.9941;0.0000;0.0000;0.0000;-1.5326;-4.2627;-2.3566;34.7700 
1648.333;0.0703;-0.0083;0.9941;0.0000;0.0000;0.0000;-1.5326;-4.2627;-2.3566;34.7700 
1648.333;0.0703;-0.0083;0.9941;0.0000;0.0000;0.0000;-1.5271;-4.2627;-2.3566;34.7500 
1648.333;0.0703;-0.0083;0.9941;0.0000;0.0000;0.0000;-1.5271;-4.2627;-2.3621;34.7500 
1648.333;0.0703;-0.0083;0.9941;0.0000;0.0000;0.0000;-1.5216;-4.2627;-2.3621;34.7200 
1648.333;0.0703;-0.0083;0.9941;0.0000;0.0000;0.0000;-1.5161;-4.2627;-2.3621;34.7200 
1648.333;0.0703;-0.0083;0.9941;0.0000;0.0000;0.0000;-1.5161;-4.2627;-2.3621;34.7400 
1648.343;0.0703;-0.0083;0.9941;0.0000;0.0000;0.0000;-1.5106;-4.2572;-2.3621;34.7400 
1648.343;0.0703;-0.0083;0.9941;0.0000;0.0000;0.0000;-1.5106;-4.2572;-2.3676;34.7200 
1648.343;0.0703;-0.0083;0.9941;0.0000;0.0000;0.0000;-1.5051;-4.2572;-2.3676;34.7200 
1648.343;0.0703;-0.0083;0.9941;0.0000;0.0000;0.0000;-1.5051;-4.2572;-2.3676;34.6800 
1648.453;0.0703;-0.0083;0.9941;0.0000;0.0000;0.0000;-1.4996;-4.2572;-2.3676;34.6800 
1648.453;0.0703;-0.0083;0.9941;0.0000;0.0000;0.0000;-1.4941;-4.2572;-2.3676;34.7800 
1648.453;0.0708;-0.0083;0.9941;0.0000;0.0000;0.0000;-1.4941;-4.2572;-2.3676;34.7800 
1648.453;0.0708;-0.0083;0.9941;0.0000;0.0000;0.0000;-1.4886;-4.2572;-2.3730;34.7800 
1648.483;0.0708;-0.0083;0.9941;0.0000;0.0000;0.0000;-1.4886;-4.2572;-2.3730;34.8000 
1648.483;0.0708;-0.0083;0.9941;0.0000;0.0000;0.0000;-1.4832;-4.2517;-2.3730;34.8000 
1648.483;0.0708;-0.0083;0.9941;0.0000;0.0000;0.0000;-1.4832;-4.2517;-2.3730;34.7500 
1648.483;0.0708;-0.0083;0.9941;0.0000;0.0000;0.0000;-1.4777;-4.2517;-2.3730;34.7500 
1648.503;0.0708;-0.0083;0.9941;0.0000;0.0000;0.0000;-1.4722;-4.2517;-2.3730;34.8100 
1648.503;0.0708;-0.0083;0.9941;0.0000;0.0000;0.0000;-1.4722;-4.2517;-2.3730;34.8100 
1648.503;0.0708;-0.0083;0.9941;0.0000;0.0000;0.0000;-1.4667;-4.2517;-2.3676;34.8000 
1648.503;0.0708;-0.0083;0.9941;0.0000;0.0000;0.0000;-1.4667;-4.2517;-2.3676;34.8000 
1648.603;0.0708;-0.0083;0.9941;0.0000;0.0000;0.0000;-1.4612;-4.2517;-2.3676;34.8100 
1648.603;0.0708;-0.0083;0.9941;0.0000;0.0000;0.0000;-1.4612;-4.2517;-2.3676;34.8100 
1648.603;0.0708;-0.0083;0.9941;0.0000;0.0000;0.0000;-1.4557;-4.2517;-2.3621;34.7800 
1648.603;0.0708;-0.0083;0.9941;0.0000;0.0000;0.0000;-1.4557;-4.2517;-2.3621;34.7800 
1648.683;0.0708;-0.0083;0.9941;0.0000;0.0000;0.0000;-1.4502;-4.2462;-2.3621;34.7900 
1648.683;0.0708;-0.0083;0.9941;0.0000;0.0000;0.0000;-1.4502;-4.2462;-2.3566;34.7900 
1648.683;0.0713;-0.0088;0.9941;0.0000;0.0000;0.0000;-1.4447;-4.2462;-2.3566;34.7900 
1648.783;0.0713;-0.0088;0.9941;0.0000;0.0000;0.0000;-1.4447;-4.2462;-2.3566;34.7900 
1648.783;0.0713;-0.0088;0.9941;0.0000;0.0000;0.0000;-1.4392;-4.2462;-2.3566;34.7900 
1648.783;0.0713;-0.0088;0.9941;0.0000;0.0000;0.0000;-1.4392;-4.2462;-2.3511;34.8100 
1648.783;0.0713;-0.0088;0.9941;0.0000;0.0000;0.0000;-1.4337;-4.2462;-2.3511;34.8100 
1648.803;0.0713;-0.0088;0.9941;0.0000;0.0000;0.0000;-1.4337;-4.2462;-2.3511;34.7200 
1648.803;0.0713;-0.0088;0.9941;0.0000;0.0000;0.0000;-1.4282;-4.2462;-2.3511;34.7200 
1648.803;0.0713;-0.0088;0.9941;0.0000;0.0000;0.0000;-1.4282;-4.2462;-2.3511;34.7700 
1648.803;0.0713;-0.0083;0.9946;0.0000;0.0000;0.0000;-1.4227;-4.2462;-2.3511;34.7700 
