Time;ax;ay;az;wx;wy;wz;AngleX;AngleY;AngleZ;T 
1746.137;0.0054;0.0161;0.9932;0.0000;0.0000;0.0000;0.9119;-0.2692;-49.0979;34.8100 
1746.137;0.0054;0.0161;0.9932;0.0000;0.0000;0.0000;0.9119;-0.2692;-49.0979;34.8100 
1746.137;0.0054;0.0161;0.9932;0.0000;0.0000;0.0000;0.9119;-0.2692;-49.0979;34.8100 
1746.137;0.0039;0.0151;0.9922;0.0000;0.0000;0.0000;0.9119;-0.2692;-49.0979;34.8400 
1746.147;0.0039;0.0151;0.9922;0.0000;0.0000;0.0000;0.9119;-0.2692;-49.0979;34.8400 
1746.147;0.0039;0.0151;0.9922;0.0000;0.0000;0.0000;0.9119;-0.2692;-49.0979;34.7500 
1746.147;0.0039;0.0151;0.9922;0.0000;0.0000;0.0000;0.9119;-0.2692;-49.0979;34.7500 
1746.147;0.0039;0.0151;0.9922;0.0000;0.0000;0.0000;0.9119;-0.2692;-49.0979;34.8200 
1746.147;0.0039;0.0151;0.9922;0.0000;0.0000;0.0000;0.9119;-0.2692;-49.0979;34.8200 
1746.147;0.0039;0.0151;0.9922;0.0000;0.0000;0.0000;0.9119;-0.2692;-49.0979;34.7200 
1746.147;0.0039;0.0151;0.9922;0.0000;0.0000;0.0000;0.9119;-0.2692;-49.0979;34.7200 
1746.147;0.0049;0.0156;0.9927;0.0000;0.0000;0.0000;0.9119;-0.2692;-49.0979;34.7800 
1746.147;0.0049;0.0156;0.9927;0.0000;0.0000;0.0000;0.9119;-0.2692;-49.0979;34.7800 
1746.147;0.0049;0.0156;0.9927;0.0000;0.0000;0.0000;0.9119;-0.2692;-49.0924;34.8400 
1746.147;0.0049;0.0156;0.9927;0.0000;0.0000;0.0000;0.9119;-0.2692;-49.0924;34.8400 
1746.147;0.0049;0.0156;0.9927;0.0000;0.0000;0.0000;0.9119;-0.2692;-49.0924;34.7800 
1746.147;0.0049;0.0156;0.9927;0.0000;0.0000;0.0000;0.9119;-0.2692;-49.0924;34.7800 
1746.147;0.0049;0.0156;0.9927;0.0000;0.0000;0.0000;0.9119;-0.2692;-49.0924;34.7800 
1746.147;0.0049;0.0156;0.9927;0.0000;0.0000;0.0000;0.9119;-0.2692;-49.0924;34.8100 
1746.147;0.0024;0.0146;0.9912;0.0000;0.0000;0.0000;0.9119;-0.2692;-49.0924;34.8100 
1746.147;0.0024;0.0146;0.9912;0.0000;0.0000;0.0000;0.9119;-0.2692;-49.0924;34.8100 
1746.167;0.0024;0.0146;0.9912;0.0000;0.0000;0.0000;0.9119;-0.2692;-49.0924;34.8100 
1746.167;0.0024;0.0146;0.9912;0.0000;0.0000;0.0000;0.9064;-0.2692;-49.0924;34.8000 
1746.167;0.0024;0.0146;0.9912;0.0000;0.0000;0.0000;0.9064;-0.2692;-49.0924;34.8000 
1746.167;0.0024;0.0146;0.9912;0.0000;0.0000;0.0000;0.9064;-0.2637;-49.0924;34.8100 
1746.177;0.0024;0.0146;0.9912;0.0000;0.0000;0.0000;0.9064;-0.2637;-49.0924;34.8100 
1746.177;0.0024;0.0146;0.9912;0.0000;0.0000;0.0000;0.9064;-0.2637;-49.0924;34.7700 
1746.187;0.0034;0.0156;0.9917;0.0000;0.0000;0.0000;0.9064;-0.2637;-49.0924;34.7700 
1746.187;0.0034;0.0156;0.9917;0.0000;0.0000;0.0000;0.9064;-0.2637;-49.0924;34.7900 
1746.207;0.0034;0.0156;0.9917;0.0000;0.0000;0.0000;0.9064;-0.2637;-49.0924;34.7900 
1746.207;0.0034;0.0156;0.9917;0.0000;0.0000;0.0000;0.9064;-0.2637;-49.0924;34.8200 
1746.227;0.0034;0.0156;0.9917;0.0000;0.0000;0.0000;0.9064;-0.2637;-49.0924;34.8200 
1746.227;0.0034;0.0156;0.9917;0.0000;0.0000;0.0000;0.9064;-0.2637;-49.0924;34.7200 
1746.227;0.0034;0.0156;0.9917;0.0000;0.0000;0.0000;0.9064;-0.2637;-49.0924;34.7200 
1746.227;0.0034;0.0156;0.9917;0.0000;0.0000;0.0000;0.9064;-0.2637;-49.0924;34.7200 
1746.227;0.0024;0.0176;0.9912;0.0000;0.0000;0.0000;0.9064;-0.2637;-49.0979;34.8100 
1746.227;0.0024;0.0176;0.9912;0.0000;0.0000;0.0000;0.9064;-0.2637;-49.0979;34.8100 
1746.237;0.0024;0.0176;0.9912;0.0000;0.0000;0.0000;0.9119;-0.2637;-49.0979;34.7800 
1746.237;0.0024;0.0176;0.9912;0.0000;0.0000;0.0000;0.9119;-0.2637;-49.0979;34.7800 
1746.247;0.0024;0.0176;0.9912;0.0000;0.0000;0.0000;0.9119;-0.2637;-49.1034;34.8100 
1746.247;0.0024;0.0176;0.9912;0.0000;0.0000;0.0000;0.9119;-0.2637;-49.1034;34.8100 
1746.247;0.0024;0.0176;0.9912;0.0000;0.0000;0.0000;0.9119;-0.2637;-49.1034;34.8000 
1746.257;0.0024;0.0176;0.9912;0.0000;0.0000;0.0000;0.9119;-0.2582;-49.1089;34.8000 
1746.257;0.0039;0.0166;0.9922;0.0000;0.0000;0.0000;0.9119;-0.2582;-49.1089;34.8600 
1746.277;0.0039;0.0166;0.9922;0.0000;0.0000;0.0000;0.9119;-0.2582;-49.1144;34.8600 
1746.277;0.0039;0.0166;0.9922;0.0000;0.0000;0.0000;0.9119;-0.2582;-49.1144;34.8100 
1746.277;0.0039;0.0166;0.9922;0.0000;0.0000;0.0000;0.9119;-0.2582;-49.1144;34.8100 
1746.297;0.0039;0.0166;0.9922;0.0000;0.0000;0.0000;0.9119;-0.2582;-49.1199;34.8400 
1746.297;0.0039;0.0166;0.9922;0.0000;0.0000;0.0000;0.9119;-0.2582;-49.1199;34.8400 
1746.297;0.0039;0.0166;0.9922;0.0000;0.0000;0.0000;0.9119;-0.2582;-49.1199;34.8400 
1746.307;0.0039;0.0166;0.9922;0.0000;0.0000;0.0000;0.9119;-0.2582;-49.1199;34.7800 
1746.307;0.0034;0.0176;0.9917;0.0000;0.0000;0.0000;0.9119;-0.2582;-49.1254;34.7800 
1746.397;0.0034;0.0176;0.9917;0.0000;0.0000;0.0000;0.9119;-0.2582;-49.1254;34.8400 
1746.397;0.0034;0.0176;0.9917;0.0000;0.0000;0.0000;0.9119;-0.2582;-49.1254;34.8400 
1746.417;0.0034;0.0176;0.9917;0.0000;0.0000;0.0000;0.9119;-0.2582;-49.1199;34.8600 
1746.417;0.0034;0.0176;0.9917;0.0000;0.0000;0.0000;0.9119;-0.2582;-49.1199;34.8600 
1746.417;0.0034;0.0176;0.9917;0.0000;0.0000;0.0000;0.9119;-0.2582;-49.1199;34.8400 
1746.417;0.0034;0.0176;0.9917;0.0000;0.0000;0.0000;0.9119;-0.2582;-49.1199;34.8400 
1746.417;0.0034;0.0176;0.9917;0.0000;0.0000;0.0000;0.9174;-0.2582;-49.1254;34.7700 
1746.417;0.0044;0.0176;0.9922;0.0000;0.0000;0.0000;0.9174;-0.2582;-49.1254;34.7700 
1746.417;0.0044;0.0176;0.9922;0.0000;0.0000;0.0000;0.9174;-0.2582;-49.1254;34.7300 
1746.417;0.0044;0.0176;0.9922;0.0000;0.0000;0.0000;0.9174;-0.2582;-49.1254;34.7300 
1746.417;0.0044;0.0176;0.9922;0.0000;0.0000;0.0000;0.9174;-0.2582;-49.1309;34.8200 
1746.417;0.0044;0.0176;0.9922;0.0000;0.0000;0.0000;0.9174;-0.2582;-49.1309;34.8200 
1746.417;0.0044;0.0176;0.9922;0.0000;0.0000;0.0000;0.9174;-0.2582;-49.1309;34.8000 
1746.417;0.0044;0.0176;0.9922;0.0000;0.0000;0.0000;0.9174;-0.2582;-49.1309;34.8000 
1746.417;0.0044;0.0176;0.9922;0.0000;0.0000;0.0000;0.9174;-0.2582;-49.1309;34.8000 
1746.417;0.0049;0.0151;0.9922;0.0000;0.0000;0.0000;0.9174;-0.2582;-49.1309;34.7700 
1746.417;0.0049;0.0151;0.9922;0.0000;0.0000;0.0000;0.9174;-0.2582;-49.1309;34.7700 
1746.417;0.0049;0.0151;0.9922;0.0000;0.0000;0.0000;0.9174;-0.2582;-49.1309;34.7900 
1746.417;0.0049;0.0151;0.9922;0.0000;0.0000;0.0000;0.9174;-0.2582;-49.1309;34.7900 
1746.417;0.0049;0.0151;0.9922;0.0000;0.0000;0.0000;0.9174;-0.2582;-49.1309;34.8100 
1746.427;0.0049;0.0151;0.9922;0.0000;0.0000;0.0000;0.9174;-0.2582;-49.1364;34.8100 
1746.447;0.0049;0.0151;0.9922;0.0000;0.0000;0.0000;0.9174;-0.2582;-49.1364;34.7800 
1746.447;0.0049;0.0151;0.9922;0.0000;0.0000;0.0000;0.9174;-0.2582;-49.1364;34.7800 
1746.457;0.0049;0.0151;0.9927;0.0000;0.0000;0.0000;0.9174;-0.2582;-49.1364;34.7600 
1746.457;0.0049;0.0151;0.9927;0.0000;0.0000;0.0000;0.9174;-0.2582;-49.1309;34.7600 
1746.457;0.0049;0.0151;0.9927;0.0000;0.0000;0.0000;0.9174;-0.2582;-49.1309;34.8100 
1746.457;0.0049;0.0151;0.9927;0.0000;0.0000;0.0000;0.9174;-0.2582;-49.1309;34.8100 
1746.467;0.0049;0.0151;0.9927;0.0000;0.0000;0.0000;0.9174;-0.2582;-49.1254;34.7300 
1746.467;0.0049;0.0151;0.9927;0.0000;0.0000;0.0000;0.9174;-0.2582;-49.1254;34.7300 
1746.467;0.0049;0.0151;0.9927;0.0000;0.0000;0.0000;0.9174;-0.2582;-49.1254;34.7800 
1746.467;0.0049;0.0151;0.9927;0.0000;0.0000;0.0000;0.9174;-0.2582;-49.1254;34.7800 
1746.477;0.0049;0.0151;0.9927;0.0000;0.0000;0.0000;0.9174;-0.2582;-49.1254;34.7800 
1746.477;0.0049;0.0151;0.9927;0.0000;0.0000;0.0000;0.9174;-0.2582;-49.1254;34.8300 
1746.477;0.0049;0.0151;0.9927;0.0000;0.0000;0.0000;0.9174;-0.2582;-49.1254;34.8300 
1746.477;0.0049;0.0151;0.9927;0.0000;0.0000;0.0000;0.9174;-0.2582;-49.1254;34.8800 
1746.487;0.0049;0.0151;0.9927;0.0000;0.0000;0.0000;0.9174;-0.2582;-49.1199;34.8800 
1746.487;0.0049;0.0151;0.9927;0.0000;0.0000;0.0000;0.9174;-0.2582;-49.1199;34.7800 
1746.497;0.0049;0.0151;0.9927;0.0000;0.0000;0.0000;0.9174;-0.2582;-49.1199;34.7800 
1746.497;0.0049;0.0151;0.9927;0.0000;0.0000;0.0000;0.9174;-0.2582;-49.1199;34.8100 
1746.507;0.0054;0.0137;0.9927;0.0000;0.0000;0.0000;0.9119;-0.2582;-49.1144;34.8100 
1746.507;0.0054;0.0137;0.9927;0.0000;0.0000;0.0000;0.9119;-0.2582;-49.1144;34.8000 
1746.596;0.0054;0.0137;0.9927;0.0000;0.0000;0.0000;0.9119;-0.2582;-49.1144;34.8000 
1746.596;0.0054;0.0137;0.9927;0.0000;0.0000;0.0000;0.9119;-0.2582;-49.1144;34.8000 
1746.636;0.0054;0.0137;0.9927;0.0000;0.0000;0.0000;0.9119;-0.2582;-49.1144;34.8000 
1746.636;0.0054;0.0137;0.9927;0.0000;0.0000;0.0000;0.9119;-0.2582;-49.1144;34.7800 
1746.636;0.0054;0.0137;0.9927;0.0000;0.0000;0.0000;0.9119;-0.2582;-49.1089;34.7800 
1746.636;0.0054;0.0137;0.9927;0.0000;0.0000;0.0000;0.9119;-0.2582;-49.1089;34.8300 
1746.636;0.0049;0.0142;0.9927;0.0000;0.0000;0.0000;0.9119;-0.2582;-49.1089;34.8300 
1746.636;0.0049;0.0142;0.9927;0.0000;0.0000;0.0000;0.9119;-0.2582;-49.1089;34.8300 
1746.636;0.0049;0.0142;0.9927;0.0000;0.0000;0.0000;0.9119;-0.2582;-49.1089;34.7600 
1746.636;0.0049;0.0142;0.9927;0.0000;0.0000;0.0000;0.9119;-0.2637;-49.1089;34.7600 
1746.636;0.0049;0.0142;0.9927;0.0000;0.0000;0.0000;0.9119;-0.2637;-49.1089;34.8000 
1746.636;0.0049;0.0142;0.9927;0.0000;0.0000;0.0000;0.9119;-0.2637;-49.1089;34.8000 
1746.636;0.0049;0.0142;0.9927;0.0000;0.0000;0.0000;0.9119;-0.2637;-49.1089;34.8400 
1746.636;0.0049;0.0142;0.9927;0.0000;0.0000;0.0000;0.9119;-0.2637;-49.1089;34.8400 
1746.636;0.0049;0.0156;0.9922;0.0000;0.0000;0.0000;0.9119;-0.2637;-49.1089;34.7600 
1746.636;0.0049;0.0156;0.9922;0.0000;0.0000;0.0000;0.9119;-0.2637;-49.1089;34.7600 
1746.636;0.0049;0.0156;0.9922;0.0000;0.0000;0.0000;0.9119;-0.2637;-49.1089;34.8200 
1746.636;0.0049;0.0156;0.9922;0.0000;0.0000;0.0000;0.9119;-0.2637;-49.1089;34.8200 
1746.636;0.0049;0.0156;0.9922;0.0000;0.0000;0.0000;0.9119;-0.2637;-49.1089;34.7800 
1746.636;0.0049;0.0156;0.9922;0.0000;0.0000;0.0000;0.9119;-0.2637;-49.1089;34.7800 
1746.636;0.0049;0.0156;0.9922;0.0000;0.0000;0.0000;0.9119;-0.2637;-49.1089;34.8000 
1746.656;0.0049;0.0156;0.9922;0.0000;0.0000;0.0000;0.9119;-0.2637;-49.1089;34.8000 
1746.656;0.0049;0.0146;0.9922;0.0000;0.0000;0.0000;0.9119;-0.2637;-49.1089;34.8000 
1746.656;0.0049;0.0146;0.9922;0.0000;0.0000;0.0000;0.9119;-0.2637;-49.1089;34.7800 
1746.656;0.0049;0.0146;0.9922;0.0000;0.0000;0.0000;0.9064;-0.2637;-49.1089;34.7800 
1746.656;0.0049;0.0146;0.9922;0.0000;0.0000;0.0000;0.9064;-0.2637;-49.1144;34.8400 
1746.656;0.0049;0.0146;0.9922;0.0000;0.0000;0.0000;0.9064;-0.2637;-49.1144;34.8400 
1746.656;0.0049;0.0146;0.9922;0.0000;0.0000;0.0000;0.9064;-0.2637;-49.1144;34.7400 
1746.656;0.0049;0.0146;0.9922;0.0000;0.0000;0.0000;0.9064;-0.2637;-49.1144;34.7400 
1746.656;0.0049;0.0146;0.9922;0.0000;0.0000;0.0000;0.9064;-0.2637;-49.1144;34.7800 
1746.656;0.0044;0.0151;0.9922;0.0000;0.0000;0.0000;0.9064;-0.2637;-49.1144;34.7800 
1746.676;0.0044;0.0151;0.9922;0.0000;0.0000;0.0000;0.9064;-0.2637;-49.1144;34.7700 
1746.676;0.0044;0.0151;0.9922;0.0000;0.0000;0.0000;0.9064;-0.2637;-49.1199;34.7700 
1746.686;0.0044;0.0151;0.9922;0.0000;0.0000;0.0000;0.9064;-0.2637;-49.1199;34.7900 
1746.686;0.0044;0.0151;0.9922;0.0000;0.0000;0.0000;0.9064;-0.2637;-49.1199;34.7900 
1746.696;0.0044;0.0151;0.9922;0.0000;0.0000;0.0000;0.9064;-0.2637;-49.1254;34.7700 
1746.696;0.0044;0.0151;0.9922;0.0000;0.0000;0.0000;0.9064;-0.2637;-49.1254;34.7700 
1746.696;0.0044;0.0151;0.9922;0.0000;0.0000;0.0000;0.9064;-0.2637;-49.1254;34.8200 
1746.696;0.0044;0.0161;0.9927;0.0000;0.0000;0.0000;0.9064;-0.2637;-49.1254;34.8200 
1746.706;0.0044;0.0161;0.9927;0.0000;0.0000;0.0000;0.9064;-0.2637;-49.1309;34.8200 
1746.706;0.0044;0.0161;0.9927;0.0000;0.0000;0.0000;0.9064;-0.2637;-49.1309;34.7700 
1746.806;0.0044;0.0161;0.9927;0.0000;0.0000;0.0000;0.9064;-0.2637;-49.1309;34.7700 
1746.806;0.0044;0.0161;0.9927;0.0000;0.0000;0.0000;0.9064;-0.2637;-49.1364;34.8100 
1746.826;0.0044;0.0161;0.9927;0.0000;0.0000;0.0000;0.9064;-0.2637;-49.1364;34.8100 
1746.826;0.0044;0.0161;0.9927;0.0000;0.0000;0.0000;0.9064;-0.2637;-49.1364;34.7700 
1746.826;0.0044;0.0161;0.9927;0.0000;0.0000;0.0000;0.9064;-0.2637;-49.1364;34.7700 
1746.826;0.0044;0.0151;0.9927;0.0000;0.0000;0.0000;0.9064;-0.2637;-49.1418;34.8400 
1746.826;0.0044;0.0151;0.9927;0.0000;0.0000;0.0000;0.9064;-0.2637;-49.1418;34.8400 
1746.826;0.0044;0.0151;0.9927;0.0000;0.0000;0.0000;0.9064;-0.2637;-49.1418;34.7800 
1746.826;0.0044;0.0151;0.9927;0.0000;0.0000;0.0000;0.9064;-0.2637;-49.1473;34.7800 
1746.826;0.0044;0.0151;0.9927;0.0000;0.0000;0.0000;0.9064;-0.2637;-49.1473;34.7900 
1746.826;0.0044;0.0151;0.9927;0.0000;0.0000;0.0000;0.9064;-0.2637;-49.1473;34.7900 
1746.826;0.0044;0.0151;0.9927;0.0000;0.0000;0.0000;0.9064;-0.2637;-49.1528;34.8200 
1746.826;0.0049;0.0151;0.9932;0.0000;0.0000;0.0000;0.9064;-0.2637;-49.1528;34.8200 
1746.826;0.0049;0.0151;0.9932;0.0000;0.0000;0.0000;0.9064;-0.2637;-49.1528;34.7700 
1746.826;0.0049;0.0151;0.9932;0.0000;0.0000;0.0000;0.9064;-0.2637;-49.1528;34.7700 
1746.826;0.0049;0.0151;0.9932;0.0000;0.0000;0.0000;0.9064;-0.2637;-49.1583;34.7700 
1746.826;0.0049;0.0151;0.9932;0.0000;0.0000;0.0000;0.9064;-0.2637;-49.1583;34.8600 
1746.826;0.0049;0.0151;0.9932;0.0000;0.0000;0.0000;0.9064;-0.2637;-49.1583;34.8600 
1746.826;0.0049;0.0151;0.9932;0.0000;0.0000;0.0000;0.9064;-0.2637;-49.1583;34.8600 
1746.826;0.0049;0.0151;0.9932;0.0000;0.0000;0.0000;0.9064;-0.2637;-49.1583;34.8600 
1746.826;0.0044;0.0161;0.9932;0.0000;0.0000;0.0000;0.9064;-0.2637;-49.1528;34.8300 
1746.826;0.0044;0.0161;0.9932;0.0000;0.0000;0.0000;0.9064;-0.2637;-49.1528;34.8300 
1746.826;0.0044;0.0161;0.9932;0.0000;0.0000;0.0000;0.9064;-0.2637;-49.1528;34.7900 
1746.836;0.0044;0.0161;0.9932;0.0000;0.0000;0.0000;0.9064;-0.2637;-49.1528;34.7900 
1746.836;0.0044;0.0161;0.9932;0.0000;0.0000;0.0000;0.9064;-0.2637;-49.1528;34.8100 
1746.846;0.0044;0.0161;0.9932;0.0000;0.0000;0.0000;0.9064;-0.2637;-49.1473;34.8100 
1746.846;0.0044;0.0161;0.9932;0.0000;0.0000;0.0000;0.9064;-0.2637;-49.1473;34.7700 
1746.856;0.0044;0.0161;0.9932;0.0000;0.0000;0.0000;0.9064;-0.2637;-49.1473;34.7700 
1746.856;0.0049;0.0156;0.9932;0.0000;0.0000;0.0000;0.9064;-0.2637;-49.1473;34.8400 
1746.866;0.0049;0.0156;0.9932;0.0000;0.0000;0.0000;0.9064;-0.2637;-49.1473;34.8400 
1746.866;0.0049;0.0156;0.9932;0.0000;0.0000;0.0000;0.9064;-0.2637;-49.1473;34.8500 
1746.876;0.0049;0.0156;0.9932;0.0000;0.0000;0.0000;0.9064;-0.2637;-49.1473;34.8500 
1746.876;0.0049;0.0156;0.9932;0.0000;0.0000;0.0000;0.9064;-0.2637;-49.1418;34.8500 
1746.886;0.0049;0.0156;0.9932;0.0000;0.0000;0.0000;0.9064;-0.2637;-49.1418;34.7600 
1746.896;0.0049;0.0156;0.9932;0.0000;0.0000;0.0000;0.9064;-0.2637;-49.1418;34.7600 
1746.896;0.0049;0.0156;0.9932;0.0000;0.0000;0.0000;0.9064;-0.2637;-49.1418;34.7800 
1746.916;0.0044;0.0161;0.9927;0.0000;0.0000;0.0000;0.9064;-0.2637;-49.1418;34.7800 
1746.916;0.0044;0.0161;0.9927;0.0000;0.0000;0.0000;0.9064;-0.2637;-49.1473;34.8400 
1747.006;0.0044;0.0161;0.9927;0.0000;0.0000;0.0000;0.9064;-0.2637;-49.1473;34.8400 
1747.006;0.0044;0.0161;0.9927;0.0000;0.0000;0.0000;0.9064;-0.2637;-49.1473;34.7600 
1747.016;0.0044;0.0161;0.9927;0.0000;0.0000;0.0000;0.9064;-0.2637;-49.1473;34.7600 
1747.016;0.0044;0.0161;0.9927;0.0000;0.0000;0.0000;0.9064;-0.2637;-49.1473;34.8400 
1747.016;0.0044;0.0161;0.9927;0.0000;0.0000;0.0000;0.9064;-0.2637;-49.1473;34.8400 
1747.016;0.0044;0.0161;0.9927;0.0000;0.0000;0.0000;0.9064;-0.2637;-49.1473;34.8200 
1747.016;0.0044;0.0161;0.9932;0.0000;0.0000;0.0000;0.9064;-0.2637;-49.1528;34.8200 
1747.016;0.0044;0.0161;0.9932;0.0000;0.0000;0.0000;0.9064;-0.2637;-49.1528;34.8000 
1747.016;0.0044;0.0161;0.9932;0.0000;0.0000;0.0000;0.9064;-0.2637;-49.1528;34.8000 
1747.016;0.0044;0.0161;0.9932;0.0000;0.0000;0.0000;0.9064;-0.2637;-49.1528;34.8000 
1747.016;0.0044;0.0161;0.9932;0.0000;0.0000;0.0000;0.9064;-0.2637;-49.1528;34.7600 
1747.016;0.0044;0.0161;0.9932;0.0000;0.0000;0.0000;0.9064;-0.2637;-49.1528;34.7600 
1747.016;0.0044;0.0161;0.9932;0.0000;0.0000;0.0000;0.9064;-0.2637;-49.1528;34.8200 
1747.016;0.0044;0.0161;0.9932;0.0000;0.0000;0.0000;0.9064;-0.2637;-49.1528;34.8200 
1747.016;0.0034;0.0161;0.9927;0.0000;0.0000;0.0000;0.9064;-0.2637;-49.1528;34.8100 
1747.016;0.0034;0.0161;0.9927;0.0000;0.0000;0.0000;0.9064;-0.2582;-49.1528;34.8100 
1747.016;0.0034;0.0161;0.9927;0.0000;0.0000;0.0000;0.9064;-0.2582;-49.1528;34.8300 
1747.016;0.0034;0.0161;0.9927;0.0000;0.0000;0.0000;0.9064;-0.2582;-49.1473;34.8300 
1747.016;0.0034;0.0161;0.9927;0.0000;0.0000;0.0000;0.9119;-0.2582;-49.1473;34.8500 
1747.016;0.0034;0.0161;0.9927;0.0000;0.0000;0.0000;0.9119;-0.2582;-49.1473;34.8500 
1747.016;0.0034;0.0161;0.9927;0.0000;0.0000;0.0000;0.9119;-0.2582;-49.1418;34.7900 
1747.016;0.0034;0.0161;0.9927;0.0000;0.0000;0.0000;0.9119;-0.2582;-49.1418;34.7900 
1747.036;0.0044;0.0156;0.9932;0.0000;0.0000;0.0000;0.9119;-0.2582;-49.1418;34.8000 
1747.036;0.0044;0.0156;0.9932;0.0000;0.0000;0.0000;0.9119;-0.2582;-49.1364;34.8000 
1747.056;0.0044;0.0156;0.9932;0.0000;0.0000;0.0000;0.9119;-0.2582;-49.1364;34.7700 
1747.056;0.0044;0.0156;0.9932;0.0000;0.0000;0.0000;0.9119;-0.2582;-49.1364;34.7700 
1747.066;0.0044;0.0156;0.9932;0.0000;0.0000;0.0000;0.9119;-0.2582;-49.1364;34.7700 
1747.066;0.0044;0.0156;0.9932;0.0000;0.0000;0.0000;0.9119;-0.2582;-49.1309;34.7600 
1747.086;0.0044;0.0156;0.9932;0.0000;0.0000;0.0000;0.9119;-0.2582;-49.1309;34.7600 
1747.086;0.0044;0.0156;0.9932;0.0000;0.0000;0.0000;0.9119;-0.2582;-49.1309;34.7700 
1747.086;0.0039;0.0151;0.9927;0.0000;0.0000;0.0000;0.9119;-0.2582;-49.1254;34.7700 
1747.086;0.0039;0.0151;0.9927;0.0000;0.0000;0.0000;0.9119;-0.2582;-49.1309;34.8000 
1747.086;0.0039;0.0151;0.9927;0.0000;0.0000;0.0000;0.9064;-0.2582;-49.1309;34.8000 
1747.086;0.0039;0.0151;0.9927;0.0000;0.0000;0.0000;0.9064;-0.2582;-49.1309;34.8400 
1747.086;0.0039;0.0151;0.9927;0.0000;0.0000;0.0000;0.9064;-0.2582;-49.1309;34.8400 
1747.086;0.0039;0.0151;0.9927;0.0000;0.0000;0.0000;0.9064;-0.2582;-49.1364;34.7600 
1747.086;0.0039;0.0151;0.9927;0.0000;0.0000;0.0000;0.9064;-0.2582;-49.1364;34.7600 
1747.096;0.0039;0.0151;0.9927;0.0000;0.0000;0.0000;0.9064;-0.2582;-49.1418;34.8100 
1747.096;0.0044;0.0156;0.9932;0.0000;0.0000;0.0000;0.9064;-0.2582;-49.1418;34.8100 
1747.116;0.0044;0.0156;0.9932;0.0000;0.0000;0.0000;0.9064;-0.2582;-49.1418;34.8000 
1747.116;0.0044;0.0156;0.9932;0.0000;0.0000;0.0000;0.9064;-0.2582;-49.1473;34.8000 
1747.116;0.0044;0.0156;0.9932;0.0000;0.0000;0.0000;0.9064;-0.2582;-49.1473;34.7800 
1747.116;0.0044;0.0156;0.9932;0.0000;0.0000;0.0000;0.9064;-0.2582;-49.1473;34.7800 
1747.206;0.0044;0.0156;0.9932;0.0000;0.0000;0.0000;0.9064;-0.2582;-49.1473;34.7800 
1747.206;0.0044;0.0156;0.9932;0.0000;0.0000;0.0000;0.9064;-0.2582;-49.1528;34.8900 
1747.226;0.0044;0.0156;0.9932;0.0000;0.0000;0.0000;0.9064;-0.2582;-49.1528;34.8900 
1747.226;0.0039;0.0151;0.9927;0.0000;0.0000;0.0000;0.9064;-0.2582;-49.1528;34.8500 
1747.226;0.0039;0.0151;0.9927;0.0000;0.0000;0.0000;0.9064;-0.2582;-49.1528;34.8500 
1747.226;0.0039;0.0151;0.9927;0.0000;0.0000;0.0000;0.9064;-0.2582;-49.1528;34.8600 
1747.226;0.0039;0.0151;0.9927;0.0000;0.0000;0.0000;0.9064;-0.2582;-49.1528;34.8600 
1747.226;0.0039;0.0151;0.9927;0.0000;0.0000;0.0000;0.9064;-0.2582;-49.1528;34.8100 
1747.226;0.0039;0.0151;0.9927;0.0000;0.0000;0.0000;0.9064;-0.2582;-49.1528;34.8100 
1747.226;0.0039;0.0151;0.9927;0.0000;0.0000;0.0000;0.9064;-0.2582;-49.1473;34.8600 
1747.226;0.0039;0.0151;0.9927;0.0000;0.0000;0.0000;0.9064;-0.2582;-49.1473;34.8600 
1747.226;0.0049;0.0146;0.9932;0.0000;0.0000;0.0000;0.9064;-0.2582;-49.1473;34.7600 
1747.226;0.0049;0.0146;0.9932;0.0000;0.0000;0.0000;0.9064;-0.2582;-49.1473;34.7600 
1747.226;0.0049;0.0146;0.9932;0.0000;0.0000;0.0000;0.9064;-0.2582;-49.1473;34.8100 
1747.226;0.0049;0.0146;0.9932;0.0000;0.0000;0.0000;0.9064;-0.2582;-49.1473;34.8100 
1747.226;0.0049;0.0146;0.9932;0.0000;0.0000;0.0000;0.9064;-0.2582;-49.1473;34.7900 
1747.226;0.0049;0.0146;0.9932;0.0000;0.0000;0.0000;0.9064;-0.2582;-49.1473;34.7900 
1747.226;0.0049;0.0146;0.9932;0.0000;0.0000;0.0000;0.9064;-0.2582;-49.1473;34.7900 
1747.226;0.0049;0.0146;0.9932;0.0000;0.0000;0.0000;0.9064;-0.2582;-49.1473;34.7700 
1747.226;0.0039;0.0151;0.9922;0.0000;0.0000;0.0000;0.9064;-0.2582;-49.1473;34.7700 
1747.226;0.0039;0.0151;0.9922;0.0000;0.0000;0.0000;0.9064;-0.2582;-49.1473;34.8700 
1747.236;0.0039;0.0151;0.9922;0.0000;0.0000;0.0000;0.9064;-0.2582;-49.1473;34.8700 
1747.236;0.0039;0.0151;0.9922;0.0000;0.0000;0.0000;0.9064;-0.2582;-49.1528;34.7600 
1747.256;0.0039;0.0151;0.9922;0.0000;0.0000;0.0000;0.9064;-0.2582;-49.1528;34.7600 
1747.256;0.0039;0.0151;0.9922;0.0000;0.0000;0.0000;0.9064;-0.2582;-49.1473;34.8800 
1747.256;0.0039;0.0151;0.9922;0.0000;0.0000;0.0000;0.9064;-0.2582;-49.1473;34.8800 
1747.256;0.0039;0.0151;0.9922;0.0000;0.0000;0.0000;0.9064;-0.2582;-49.1473;34.8500 
1747.266;0.0054;0.0161;0.9922;0.0000;0.0000;0.0000;0.9064;-0.2582;-49.1473;34.8500 
1747.266;0.0054;0.0161;0.9922;0.0000;0.0000;0.0000;0.9064;-0.2582;-49.1473;34.7700 
1747.286;0.0054;0.0161;0.9922;0.0000;0.0000;0.0000;0.9064;-0.2582;-49.1473;34.7700 
1747.286;0.0054;0.0161;0.9922;0.0000;0.0000;0.0000;0.9064;-0.2582;-49.1418;34.7500 
1747.286;0.0054;0.0161;0.9922;0.0000;0.0000;0.0000;0.9064;-0.2582;-49.1418;34.7500 
1747.286;0.0054;0.0161;0.9922;0.0000;0.0000;0.0000;0.9064;-0.2582;-49.1418;34.7500 
1747.296;0.0054;0.0161;0.9922;0.0000;0.0000;0.0000;0.9064;-0.2582;-49.1418;34.7200 
1747.296;0.0054;0.0161;0.9922;0.0000;0.0000;0.0000;0.9064;-0.2582;-49.1418;34.7200 
1747.306;0.0039;0.0151;0.9922;0.0000;0.0000;0.0000;0.9064;-0.2582;-49.1418;34.7900 
1747.306;0.0039;0.0151;0.9922;0.0000;0.0000;0.0000;0.9064;-0.2582;-49.1418;34.7900 
1747.316;0.0039;0.0151;0.9922;0.0000;0.0000;0.0000;0.9064;-0.2582;-49.1418;34.8100 
1747.316;0.0039;0.0151;0.9922;0.0000;0.0000;0.0000;0.9064;-0.2582;-49.1418;34.8100 
1747.316;0.0039;0.0151;0.9922;0.0000;0.0000;0.0000;0.9064;-0.2582;-49.1418;34.8100 
1747.316;0.0039;0.0151;0.9922;0.0000;0.0000;0.0000;0.9064;-0.2582;-49.1364;34.8100 
1747.406;0.0039;0.0151;0.9922;0.0000;0.0000;0.0000;0.9064;-0.2582;-49.1364;34.7600 
1747.406;0.0039;0.0151;0.9922;0.0000;0.0000;0.0000;0.9064;-0.2582;-49.1364;34.7600 
1747.416;0.0049;0.0171;0.9922;0.0000;0.0000;0.0000;0.9064;-0.2582;-49.1309;34.7900 
1747.416;0.0049;0.0171;0.9922;0.0000;0.0000;0.0000;0.9064;-0.2582;-49.1309;34.7900 
1747.416;0.0049;0.0171;0.9922;0.0000;0.0000;0.0000;0.9064;-0.2582;-49.1309;34.7800 
1747.416;0.0049;0.0171;0.9922;0.0000;0.0000;0.0000;0.9064;-0.2582;-49.1309;34.7800 
1747.416;0.0049;0.0171;0.9922;0.0000;0.0000;0.0000;0.9064;-0.2582;-49.1309;34.8300 
1747.416;0.0049;0.0171;0.9922;0.0000;0.0000;0.0000;0.9064;-0.2582;-49.1309;34.8300 
1747.416;0.0049;0.0171;0.9922;0.0000;0.0000;0.0000;0.9064;-0.2582;-49.1309;34.8300 
1747.416;0.0049;0.0171;0.9922;0.0000;0.0000;0.0000;0.9064;-0.2582;-49.1254;34.8500 
1747.416;0.0039;0.0171;0.9917;0.0000;0.0000;0.0000;0.9064;-0.2582;-49.1254;34.8500 
1747.416;0.0039;0.0171;0.9917;0.0000;0.0000;0.0000;0.9064;-0.2582;-49.1254;34.8100 
1747.416;0.0039;0.0171;0.9917;0.0000;0.0000;0.0000;0.9064;-0.2582;-49.1254;34.8100 
1747.416;0.0039;0.0171;0.9917;0.0000;0.0000;0.0000;0.9064;-0.2582;-49.1254;34.8000 
1747.416;0.0039;0.0171;0.9917;0.0000;0.0000;0.0000;0.9119;-0.2582;-49.1254;34.8000 
1747.416;0.0039;0.0171;0.9917;0.0000;0.0000;0.0000;0.9119;-0.2582;-49.1254;34.8400 
1747.416;0.0039;0.0171;0.9917;0.0000;0.0000;0.0000;0.9119;-0.2582;-49.1254;34.8400 
1747.416;0.0039;0.0171;0.9917;0.0000;0.0000;0.0000;0.9119;-0.2582;-49.1199;34.8300 
1747.416;0.0039;0.0161;0.9922;0.0000;0.0000;0.0000;0.9119;-0.2582;-49.1199;34.8300 
1747.426;0.0039;0.0161;0.9922;0.0000;0.0000;0.0000;0.9119;-0.2582;-49.1199;34.7600 
1747.426;0.0039;0.0161;0.9922;0.0000;0.0000;0.0000;0.9119;-0.2582;-49.1199;34.7600 
1747.436;0.0039;0.0161;0.9922;0.0000;0.0000;0.0000;0.9119;-0.2582;-49.1199;34.8700 
1747.436;0.0039;0.0161;0.9922;0.0000;0.0000;0.0000;0.9119;-0.2582;-49.1144;34.8700 
1747.456;0.0039;0.0161;0.9922;0.0000;0.0000;0.0000;0.9119;-0.2582;-49.1144;34.8100 
1747.456;0.0039;0.0161;0.9922;0.0000;0.0000;0.0000;0.9119;-0.2582;-49.1144;34.8100 
1747.456;0.0039;0.0161;0.9922;0.0000;0.0000;0.0000;0.9119;-0.2582;-49.1089;34.8100 
1747.456;0.0039;0.0161;0.9917;0.0000;0.0000;0.0000;0.9119;-0.2582;-49.1089;34.8400 
1747.476;0.0039;0.0161;0.9917;0.0000;0.0000;0.0000;0.9119;-0.2582;-49.1034;34.8400 
1747.476;0.0039;0.0161;0.9917;0.0000;0.0000;0.0000;0.9119;-0.2582;-49.1034;34.8400 
1747.476;0.0039;0.0161;0.9917;0.0000;0.0000;0.0000;0.9119;-0.2582;-49.1034;34.8400 
1747.476;0.0039;0.0161;0.9917;0.0000;0.0000;0.0000;0.9119;-0.2582;-49.0979;34.8600 
1747.496;0.0039;0.0161;0.9917;0.0000;0.0000;0.0000;0.9119;-0.2582;-49.0979;34.8600 
1747.496;0.0039;0.0161;0.9917;0.0000;0.0000;0.0000;0.9119;-0.2582;-49.0924;34.7900 
1747.516;0.0039;0.0161;0.9917;0.0000;0.0000;0.0000;0.9119;-0.2582;-49.0924;34.7900 
1747.516;0.0044;0.0156;0.9922;0.0000;0.0000;0.0000;0.9119;-0.2527;-49.0869;34.7500 
1747.516;0.0044;0.0156;0.9922;0.0000;0.0000;0.0000;0.9119;-0.2527;-49.0869;34.7500 
1747.516;0.0044;0.0156;0.9922;0.0000;0.0000;0.0000;0.9119;-0.2527;-49.0869;34.7900 
1747.516;0.0044;0.0156;0.9922;0.0000;0.0000;0.0000;0.9119;-0.2527;-49.0814;34.7900 
1747.516;0.0044;0.0156;0.9922;0.0000;0.0000;0.0000;0.9119;-0.2527;-49.0814;34.8200 
1747.616;0.0044;0.0156;0.9922;0.0000;0.0000;0.0000;0.9119;-0.2527;-49.0814;34.8200 
1747.616;0.0044;0.0156;0.9922;0.0000;0.0000;0.0000;0.9119;-0.2527;-49.0759;34.8200 
1747.626;0.0044;0.0156;0.9922;0.0000;0.0000;0.0000;0.9119;-0.2527;-49.0759;34.8200 
1747.626;0.0039;0.0146;0.9917;0.0000;0.0000;0.0000;0.9119;-0.2527;-49.0759;34.8200 
1747.626;0.0039;0.0146;0.9917;0.0000;0.0000;0.0000;0.9119;-0.2527;-49.0759;34.7900 
1747.626;0.0039;0.0146;0.9917;0.0000;0.0000;0.0000;0.9119;-0.2527;-49.0759;34.7900 
1747.626;0.0039;0.0146;0.9917;0.0000;0.0000;0.0000;0.9119;-0.2527;-49.0759;34.8900 
1747.626;0.0039;0.0146;0.9917;0.0000;0.0000;0.0000;0.9119;-0.2527;-49.0759;34.8900 
1747.626;0.0039;0.0146;0.9917;0.0000;0.0000;0.0000;0.9119;-0.2527;-49.0759;34.7700 
1747.626;0.0039;0.0146;0.9917;0.0000;0.0000;0.0000;0.9119;-0.2527;-49.0814;34.7700 
1747.626;0.0039;0.0146;0.9917;0.0000;0.0000;0.0000;0.9119;-0.2527;-49.0814;34.8000 
1747.626;-0.1494;0.0303;1.0308;0.0000;0.0000;0.0000;0.9119;-0.2307;-49.0814;34.8000 
1747.626;-0.1494;0.0303;1.0308;0.0000;0.0000;0.0000;0.9119;-0.2032;-49.0814;34.8300 
1747.626;-0.1494;0.0303;1.0308;0.0000;0.0000;0.0000;0.9174;-0.1758;-49.0814;34.8300 
1747.626;-0.1494;0.0303;1.0308;0.0000;0.0000;0.0000;0.9174;-0.1538;-49.0814;34.8300 
1747.626;-0.1494;0.0303;1.0308;0.0000;0.0000;0.0000;0.9229;-0.1263;-49.0814;34.8300 
1747.626;-0.1494;0.0303;1.0308;0.0000;0.0000;0.0000;0.9229;-0.1044;-49.0814;34.8100 
1747.626;-0.1494;0.0303;1.0308;0.0000;0.0000;0.0000;0.9229;-0.0769;-49.0814;34.8100 
1747.626;-0.1494;0.0303;1.0308;0.0000;0.0000;0.0000;0.9283;-0.0549;-49.0814;34.8100 
1747.626;-0.5410;0.0762;1.0317;0.0000;0.5493;0.3052;0.9338;0.0275;-49.0704;34.7900 
1747.626;-0.5410;0.0762;1.0317;0.0000;0.5493;0.3052;0.9448;0.1099;-49.0594;34.7900 
1747.636;-0.5410;0.0762;1.0317;0.0000;0.5493;0.3052;0.9503;0.1978;-49.0540;34.7500 
1747.636;-0.5410;0.0762;1.0317;0.0000;0.5493;0.3052;0.9558;0.2802;-49.0430;34.7500 
1747.656;-0.5410;0.0762;1.0317;0.0000;0.5493;0.3052;0.9668;0.3625;-49.0375;34.8500 
1747.656;-0.5410;0.0762;1.0317;0.0000;0.5493;0.3052;0.9723;0.4504;-49.0265;34.8500 
1747.656;-0.5410;0.0762;1.0317;0.0000;0.5493;0.3052;0.9778;0.5328;-49.0210;34.8200 
1747.656;-0.5410;0.0762;1.0317;0.0000;0.5493;0.3052;0.9888;0.6152;-49.0100;34.8200 
1747.656;-1.0625;0.1685;0.9907;0.1831;2.3804;1.3428;0.9943;0.7635;-48.9825;34.8000 
1747.656;-1.0625;0.1685;0.9907;0.1831;2.3804;1.3428;1.0052;0.9119;-48.9496;34.8000 
1747.666;-1.0625;0.1685;0.9907;0.1831;2.3804;1.3428;1.0162;1.0547;-48.9221;34.8000 
1747.666;-1.0625;0.1685;0.9907;0.1831;2.3804;1.3428;1.0272;1.2030;-48.8892;34.8000 
1747.676;-1.0625;0.1685;0.9907;0.1831;2.3804;1.3428;1.0382;1.3513;-48.8562;34.8400 
1747.676;-1.0625;0.1685;0.9907;0.1831;2.3804;1.3428;1.0437;1.4941;-48.8232;34.8400 
1747.696;-1.0625;0.1685;0.9907;0.1831;2.3804;1.3428;1.0547;1.6370;-48.7903;34.7800 
1747.696;-1.0625;0.1685;0.9907;0.1831;2.3804;1.3428;1.0657;1.7853;-48.7573;34.7800 
1747.726;-1.7305;0.2974;0.9414;0.4883;4.4556;3.1128;1.0657;1.9775;-48.6914;34.7800 
1747.726;-1.7305;0.2974;0.9414;0.4883;4.4556;3.1128;1.0657;2.1698;-48.6255;34.7600 
1747.816;-1.7305;0.2974;0.9414;0.4883;4.4556;3.1128;1.0712;2.3621;-48.5541;34.7600 
1747.816;-1.7305;0.2974;0.9414;0.4883;4.4556;3.1128;1.0712;2.5543;-48.4882;34.7600 
1747.826;-1.7305;0.2974;0.9414;0.4883;4.4556;3.1128;1.0712;2.7466;-48.4167;34.7600 
1747.826;-1.7305;0.2974;0.9414;0.4883;4.4556;3.1128;1.0712;2.9388;-48.3508;34.7700 
1747.826;-1.7305;0.2974;0.9414;0.4883;4.4556;3.1128;1.0767;3.1256;-48.2849;34.7700 
1747.826;-1.7305;0.2974;0.9414;0.4883;4.4556;3.1128;1.0767;3.3179;-48.2190;34.7600 
1747.826;-2.2134;0.3911;0.9023;0.4883;5.1270;4.6997;1.0712;3.5266;-48.1256;34.7600 
1747.826;-2.2134;0.3911;0.9023;0.4883;5.1270;4.6997;1.0657;3.7354;-48.0377;34.8000 
1747.826;-2.2134;0.3911;0.9023;0.4883;5.1270;4.6997;1.0602;3.9441;-47.9498;34.8000 
1747.826;-2.2134;0.3911;0.9023;0.4883;5.1270;4.6997;1.0547;4.1528;-47.8619;34.8100 
1747.826;-2.2134;0.3911;0.9023;0.4883;5.1270;4.6997;1.0492;4.3561;-47.7740;34.8100 
1747.826;-2.2134;0.3911;0.9023;0.4883;5.1270;4.6997;1.0437;4.5648;-47.6862;34.7900 
1747.826;-2.2134;0.3911;0.9023;0.4883;5.1270;4.6997;1.0437;4.7681;-47.5983;34.7900 
1747.826;-2.2134;0.3911;0.9023;0.4883;5.1270;4.6997;1.0382;4.9768;-47.5159;34.8000 
1747.826;-2.3662;0.4536;0.8550;0.0610;3.6621;5.1880;1.0327;5.1801;-47.4170;34.8000 
1747.826;-2.3662;0.4536;0.8550;0.0610;3.6621;5.1880;1.0217;5.3833;-47.3236;34.8000 
1747.826;-2.3662;0.4536;0.8550;0.0610;3.6621;5.1880;1.0162;5.5811;-47.2247;34.7900 
1747.826;-2.3662;0.4536;0.8550;0.0610;3.6621;5.1880;1.0107;5.7843;-47.1313;34.7900 
1747.826;-2.3662;0.4536;0.8550;0.0610;3.6621;5.1880;1.0052;5.9875;-47.0325;34.8100 
1747.826;-2.3662;0.4536;0.8550;0.0610;3.6621;5.1880;0.9943;6.1853;-46.9336;34.8100 
1747.826;-2.3662;0.4536;0.8550;0.0610;3.6621;5.1880;0.9888;6.3885;-46.8347;34.7900 
1747.826;-2.3662;0.4536;0.8550;0.0610;3.6621;5.1880;0.9778;6.5863;-46.7358;34.7900 
1747.826;-2.1011;0.3931;0.7900;-0.9766;-0.4883;4.6997;0.9613;6.7621;-46.6425;34.8500 
1747.836;-2.1011;0.3931;0.7900;-0.9766;-0.4883;4.6997;0.9503;6.9379;-46.5491;34.8500 
1747.836;-2.1011;0.3931;0.7900;-0.9766;-0.4883;4.6997;0.9393;7.1136;-46.4502;34.8400 
1747.836;-2.1011;0.3931;0.7900;-0.9766;-0.4883;4.6997;0.9229;7.2894;-46.3568;34.8400 
1747.836;-2.1011;0.3931;0.7900;-0.9766;-0.4883;4.6997;0.9119;7.4652;-46.2579;34.7600 
1747.856;-2.1011;0.3931;0.7900;-0.9766;-0.4883;4.6997;0.8954;7.6410;-46.1646;34.7600 
1747.856;-2.1011;0.3931;0.7900;-0.9766;-0.4883;4.6997;0.8844;7.8168;-46.0657;34.8500 
1747.866;-2.1011;0.3931;0.7900;-0.9766;-0.4883;4.6997;0.8679;7.9871;-45.9668;34.8500 
1747.866;-1.5552;0.2842;0.6611;-3.1738;-6.6528;4.6997;0.8459;8.1244;-45.8734;34.8000 
1747.866;-1.5552;0.2842;0.6611;-3.1738;-6.6528;4.6997;0.8295;8.2617;-45.7855;34.8000 
1747.866;-1.5552;0.2842;0.6611;-3.1738;-6.6528;4.6997;0.8130;8.3936;-45.6976;34.8000 
1747.886;-1.5552;0.2842;0.6611;-3.1738;-6.6528;4.6997;0.7910;8.5309;-45.6097;34.7700 
1747.886;-1.5552;0.2842;0.6611;-3.1738;-6.6528;4.6997;0.7745;8.6682;-45.5164;34.7700 
1747.886;-1.5552;0.2842;0.6611;-3.1738;-6.6528;4.6997;0.7526;8.8000;-45.4285;34.6900 
1747.896;-1.5552;0.2842;0.6611;-3.1738;-6.6528;4.6997;0.7306;8.9374;-45.3351;34.6900 
1747.896;-1.5552;0.2842;0.6611;-3.1738;-6.6528;4.6997;0.7141;9.0692;-45.2417;34.8100 
1747.906;-0.8354;0.1343;0.4438;-6.0425;-13.0005;6.9580;0.6866;9.1571;-45.1483;34.8100 
1747.906;-0.8354;0.1343;0.4438;-6.0425;-13.0005;6.9580;0.6592;9.2450;-45.0604;34.8100 
1747.906;-0.8354;0.1343;0.4438;-6.0425;-13.0005;6.9580;0.6317;9.3384;-44.9670;34.8100 
1747.906;-0.8354;0.1343;0.4438;-6.0425;-13.0005;6.9580;0.5988;9.4263;-44.8682;34.7900 
1747.926;-0.8354;0.1343;0.4438;-6.0425;-13.0005;6.9580;0.5713;9.5142;-44.7748;34.7900 
1747.926;-0.8354;0.1343;0.4438;-6.0425;-13.0005;6.9580;0.5438;9.6021;-44.6814;34.8100 
1747.926;-0.8354;0.1343;0.4438;-6.0425;-13.0005;6.9580;0.5109;9.6899;-44.5825;34.8100 
1747.926;-0.8354;0.1343;0.4438;-6.0425;-13.0005;6.9580;0.4834;9.7723;-44.4836;34.8000 
1748.036;-0.2012;-0.0024;0.2407;-9.2773;-18.6157;12.6953;0.4395;9.7723;-44.4012;34.8000 
1748.036;-0.2012;-0.0024;0.2407;-9.2773;-18.6157;12.6953;0.3955;9.7668;-44.3134;34.8000 
1748.056;-0.2012;-0.0024;0.2407;-9.2773;-18.6157;12.6953;0.3516;9.7614;-44.2255;34.8300 
1748.056;-0.2012;-0.0024;0.2407;-9.2773;-18.6157;12.6953;0.3076;9.7559;-44.1431;34.8300 
1748.056;-0.2012;-0.0024;0.2407;-9.2773;-18.6157;12.6953;0.2582;9.7559;-44.0552;34.7800 
1748.056;-0.2012;-0.0024;0.2407;-9.2773;-18.6157;12.6953;0.2142;9.7504;-43.9673;34.7800 
1748.056;-0.2012;-0.0024;0.2407;-9.2773;-18.6157;12.6953;0.1703;9.7449;-43.8794;34.8500 
1748.056;-0.2012;-0.0024;0.2407;-9.2773;-18.6157;12.6953;0.1263;9.7394;-43.7915;34.8500 
1748.056;0.2305;-0.1025;0.0996;-12.4512;-22.8882;21.3623;0.0165;9.4208;-43.6707;34.7800 
1748.056;0.2305;-0.1025;0.0996;-12.4512;-22.8882;21.3623;-0.0934;9.1077;-43.5553;34.7800 
1748.056;0.2305;-0.1025;0.0996;-12.4512;-22.8882;21.3623;-0.2032;8.7891;-43.4344;34.8300 
1748.056;0.2305;-0.1025;0.0996;-12.4512;-22.8882;21.3623;-0.3131;8.4705;-43.3136;34.8300 
1748.056;0.2305;-0.1025;0.0996;-12.4512;-22.8882;21.3623;-0.4285;8.1573;-43.1873;34.7900 
1748.056;0.2305;-0.1025;0.0996;-12.4512;-22.8882;21.3623;-0.5383;7.8387;-43.0609;34.7900 
1748.056;0.2305;-0.1025;0.0996;-12.4512;-22.8882;21.3623;-0.6482;7.5256;-42.9346;34.8400 
1748.056;0.2305;-0.1025;0.0996;-12.4512;-22.8882;21.3623;-0.7526;7.2125;-42.8027;34.8400 
1748.056;0.4492;-0.1616;0.0337;-14.9536;-24.7192;31.7993;-0.8130;6.8445;-42.5665;34.8200 
1748.056;0.4492;-0.1616;0.0337;-14.9536;-24.7192;31.7993;-0.8734;6.4764;-42.3303;34.8200 
1748.056;0.4492;-0.1616;0.0337;-14.9536;-24.7192;31.7993;-0.9393;6.1084;-42.0886;34.8200 
1748.056;0.4492;-0.1616;0.0337;-14.9536;-24.7192;31.7993;-0.9998;5.7404;-41.8524;34.8700 
1748.056;0.4492;-0.1616;0.0337;-14.9536;-24.7192;31.7993;-1.0657;5.3723;-41.6162;34.8700 
1748.056;0.4492;-0.1616;0.0337;-14.9536;-24.7192;31.7993;-1.1316;5.0098;-41.3800;34.7700 
1748.056;0.4492;-0.1616;0.0337;-14.9536;-24.7192;31.7993;-1.1975;4.6472;-41.1438;34.7700 
1748.066;0.4492;-0.1616;0.0337;-14.9536;-24.7192;31.7993;-1.2689;4.2847;-40.9076;34.8200 
1748.066;0.5010;-0.1914;0.0308;-16.9678;-23.8037;43.1519;-1.3458;3.9221;-40.6110;34.8200 
1748.066;0.5010;-0.1914;0.0308;-16.9678;-23.8037;43.1519;-1.4282;3.5706;-40.3198;34.8100 
1748.066;0.5010;-0.1914;0.0308;-16.9678;-23.8037;43.1519;-1.5161;3.2135;-40.0232;34.8100 
1748.186;0.5010;-0.1914;0.0308;-16.9678;-23.8037;43.1519;-1.5985;2.8564;-39.7321;34.7900 
1748.186;0.5010;-0.1914;0.0308;-16.9678;-23.8037;43.1519;-1.6809;2.5049;-39.4354;34.7900 
1748.206;0.5010;-0.1914;0.0308;-16.9678;-23.8037;43.1519;-1.7688;2.1533;-39.1388;34.7800 
1748.206;0.5010;-0.1914;0.0308;-16.9678;-23.8037;43.1519;-1.8567;1.8018;-38.8422;34.7800 
1748.206;0.5010;-0.1914;0.0308;-16.9678;-23.8037;43.1519;-1.9446;1.4557;-38.5455;34.7500 
1748.206;0.4561;-0.2104;0.0781;-19.2261;-20.5078;55.1147;-2.0764;1.1426;-38.2050;34.7500 
1748.206;0.4561;-0.2104;0.0781;-19.2261;-20.5078;55.1147;-2.2137;0.8295;-37.8699;34.8000 
1748.206;0.4561;-0.2104;0.0781;-19.2261;-20.5078;55.1147;-2.3511;0.5164;-37.5293;34.8000 
1748.206;0.4561;-0.2104;0.0781;-19.2261;-20.5078;55.1147;-2.4884;0.2087;-37.1942;34.8000 
1748.206;0.4561;-0.2104;0.0781;-19.2261;-20.5078;55.1147;-2.6257;-0.0934;-36.8536;34.7900 
1748.206;0.4561;-0.2104;0.0781;-19.2261;-20.5078;55.1147;-2.7631;-0.4010;-36.5131;34.7900 
1748.206;0.4561;-0.2104;0.0781;-19.2261;-20.5078;55.1147;-2.9059;-0.7031;-36.1670;34.8000 
1748.206;0.4561;-0.2104;0.0781;-19.2261;-20.5078;55.1147;-3.0432;-1.0107;-35.8209;34.8000 
1748.206;0.5576;-0.3877;0.2837;-19.0430;-14.7705;66.8335;-3.2300;-1.2250;-35.4529;34.8500 
1748.206;0.5576;-0.3877;0.2837;-19.0430;-14.7705;66.8335;-3.4222;-1.4392;-35.0848;34.8500 
1748.206;0.5576;-0.3877;0.2837;-19.0430;-14.7705;66.8335;-3.6145;-1.6534;-34.7168;34.8700 
1748.206;0.5576;-0.3877;0.2837;-19.0430;-14.7705;66.8335;-3.8013;-1.8677;-34.3488;34.8700 
1748.206;0.5576;-0.3877;0.2837;-19.0430;-14.7705;66.8335;-3.9935;-2.0764;-33.9807;34.7800 
1748.206;0.5576;-0.3877;0.2837;-19.0430;-14.7705;66.8335;-4.1913;-2.2852;-33.6072;34.7800 
1748.206;0.5576;-0.3877;0.2837;-19.0430;-14.7705;66.8335;-4.3835;-2.4939;-33.2391;34.8400 
1748.206;0.5576;-0.3877;0.2837;-19.0430;-14.7705;66.8335;-4.5813;-2.6971;-32.8656;34.8400 
1748.206;0.4346;-0.2246;0.5034;-6.7749;-6.8970;75.1953;-4.6747;-2.8125;-32.4756;34.7900 
1748.206;0.4346;-0.2246;0.5034;-6.7749;-6.8970;75.1953;-4.7736;-2.9224;-32.0856;34.7900 
1748.206;0.4346;-0.2246;0.5034;-6.7749;-6.8970;75.1953;-4.8724;-3.0322;-31.7010;34.7700 
1748.206;0.4346;-0.2246;0.5034;-6.7749;-6.8970;75.1953;-4.9713;-3.1421;-31.3110;34.7700 
1748.226;0.4346;-0.2246;0.5034;-6.7749;-6.8970;75.1953;-5.0702;-3.2520;-30.9265;34.7700 
1748.226;0.4346;-0.2246;0.5034;-6.7749;-6.8970;75.1953;-5.1691;-3.3563;-30.5420;34.8200 
1748.226;0.4346;-0.2246;0.5034;-6.7749;-6.8970;75.1953;-5.2679;-3.4607;-30.1575;34.8200 
1748.226;0.4346;-0.2246;0.5034;-6.7749;-6.8970;75.1953;-5.3723;-3.5651;-29.7729;34.8100 
1748.236;0.6392;-0.1792;0.7944;20.2637;-1.4648;77.4536;-5.3119;-3.6420;-29.3829;34.8100 
1748.236;0.6392;-0.1792;0.7944;20.2637;-1.4648;77.4536;-5.2515;-3.7134;-28.9929;34.8200 
1748.236;0.6392;-0.1792;0.7944;20.2637;-1.4648;77.4536;-5.1965;-3.7903;-28.6084;34.8200 
1748.236;0.6392;-0.1792;0.7944;20.2637;-1.4648;77.4536;-5.1416;-3.8617;-28.2184;34.8100 
1748.246;0.6392;-0.1792;0.7944;20.2637;-1.4648;77.4536;-5.0867;-3.9386;-27.8339;34.8100 
1748.246;0.6392;-0.1792;0.7944;20.2637;-1.4648;77.4536;-5.0317;-4.0100;-27.4493;34.8100 
1748.256;0.6392;-0.1792;0.7944;20.2637;-1.4648;77.4536;-4.9768;-4.0869;-27.0648;34.8100 
1748.256;0.6392;-0.1792;0.7944;20.2637;-1.4648;77.4536;-4.9219;-4.1583;-26.6803;34.8000 
1748.256;0.5508;0.0864;0.9238;52.3682;-1.8921;74.4019;-4.6637;-4.2188;-26.3232;34.8000 
1748.256;0.5508;0.0864;0.9238;52.3682;-1.8921;74.4019;-4.4055;-4.2792;-25.9662;34.8200 
1748.266;0.5508;0.0864;0.9238;52.3682;-1.8921;74.4019;-4.1528;-4.3396;-25.6091;34.8200 
1748.266;0.5508;0.0864;0.9238;52.3682;-1.8921;74.4019;-3.8947;-4.4055;-25.2466;34.8500 
1748.276;0.5508;0.0864;0.9238;52.3682;-1.8921;74.4019;-3.6420;-4.4659;-24.8895;34.8500 
1748.276;0.5508;0.0864;0.9238;52.3682;-1.8921;74.4019;-3.3893;-4.5319;-24.5325;34.8500 
1748.296;0.5508;0.0864;0.9238;52.3682;-1.8921;74.4019;-3.1366;-4.5978;-24.1699;34.8100 
1748.296;0.5508;0.0864;0.9238;52.3682;-1.8921;74.4019;-2.8839;-4.6692;-23.8129;34.8100 
1748.386;0.6309;0.3472;0.9678;75.6836;-6.7139;69.5190;-2.4829;-4.7681;-23.4778;34.8200 
1748.386;0.6309;0.3472;0.9678;75.6836;-6.7139;69.5190;-2.0764;-4.8724;-23.1482;34.8200 
1748.386;0.6309;0.3472;0.9678;75.6836;-6.7139;69.5190;-1.6754;-4.9823;-22.8241;34.8100 
1748.386;0.6309;0.3472;0.9678;75.6836;-6.7139;69.5190;-1.2799;-5.0867;-22.4945;34.8100 
1748.396;0.6309;0.3472;0.9678;75.6836;-6.7139;69.5190;-0.8789;-5.1965;-22.1649;34.8400 
1748.396;0.6309;0.3472;0.9678;75.6836;-6.7139;69.5190;-0.4834;-5.3119;-21.8353;34.8400 
1748.396;0.6309;0.3472;0.9678;75.6836;-6.7139;69.5190;-0.0934;-5.4272;-21.5112;34.7700 
1748.396;0.6309;0.3472;0.9678;75.6836;-6.7139;69.5190;0.2966;-5.5426;-21.1816;34.7700 
1748.396;0.5576;0.3979;0.7974;73.3032;-12.0239;68.3594;0.6921;-5.6909;-20.8685;34.8000 
1748.396;0.5576;0.3979;0.7974;73.3032;-12.0239;68.3594;1.0822;-5.8392;-20.5554;34.8000 
1748.396;0.5576;0.3979;0.7974;73.3032;-12.0239;68.3594;1.4722;-5.9930;-20.2423;34.8300 
1748.406;0.5576;0.3979;0.7974;73.3032;-12.0239;68.3594;1.8622;-6.1469;-19.9292;34.8300 
1748.406;0.5576;0.3979;0.7974;73.3032;-12.0239;68.3594;2.2522;-6.3062;-19.6161;34.8300 
1748.416;0.5576;0.3979;0.7974;73.3032;-12.0239;68.3594;2.6367;-6.4600;-19.3030;34.7800 
1748.416;0.5576;0.3979;0.7974;73.3032;-12.0239;68.3594;3.0212;-6.6193;-18.9899;34.7800 
1748.445;0.5576;0.3979;0.7974;73.3032;-12.0239;68.3594;3.4003;-6.7841;-18.6823;34.7700 
1748.445;0.5586;0.1348;0.8501;41.8701;-10.0708;74.7070;3.5760;-6.9324;-18.3197;34.7700 
1748.466;0.5586;0.1348;0.8501;41.8701;-10.0708;74.7070;3.7518;-7.0862;-17.9572;34.8200 
1748.466;0.5586;0.1348;0.8501;41.8701;-10.0708;74.7070;3.9276;-7.2400;-17.5946;34.8200 
1748.476;0.5586;0.1348;0.8501;41.8701;-10.0708;74.7070;4.1034;-7.3938;-17.2321;34.8100 
1748.476;0.5586;0.1348;0.8501;41.8701;-10.0708;74.7070;4.2737;-7.5476;-16.8695;34.8100 
1748.476;0.5586;0.1348;0.8501;41.8701;-10.0708;74.7070;4.4440;-7.7014;-16.5070;34.7800 
1748.476;0.5586;0.1348;0.8501;41.8701;-10.0708;74.7070;4.6143;-7.8552;-16.1444;34.7800 
1748.495;0.5586;0.1348;0.8501;41.8701;-10.0708;74.7070;4.7791;-8.0090;-15.7819;34.7500 
1748.495;0.4463;0.0728;0.7920;-0.2441;1.7090;84.6558;4.7186;-8.1024;-15.3589;34.7500 
1748.495;0.4463;0.0728;0.7920;-0.2441;1.7090;84.6558;4.6582;-8.1903;-14.9414;34.8100 
1748.495;0.4463;0.0728;0.7920;-0.2441;1.7090;84.6558;4.5978;-8.2782;-14.5184;34.8100 
1748.495;0.4463;0.0728;0.7920;-0.2441;1.7090;84.6558;4.5319;-8.3661;-14.1010;34.8100 
1748.495;0.4463;0.0728;0.7920;-0.2441;1.7090;84.6558;4.4714;-8.4540;-13.6780;34.8100 
1748.575;0.4463;0.0728;0.7920;-0.2441;1.7090;84.6558;4.4110;-8.5419;-13.2605;34.8100 
1748.575;0.4463;0.0728;0.7920;-0.2441;1.7090;84.6558;4.3451;-8.6243;-12.8430;34.7200 
1748.595;0.4463;0.0728;0.7920;-0.2441;1.7090;84.6558;4.2792;-8.7122;-12.4255;34.7200 
1748.595;0.4429;-0.3286;0.9653;-34.4238;16.6016;91.2476;3.9716;-8.7067;-11.9476;34.8100 
1748.595;0.4429;-0.3286;0.9653;-34.4238;16.6016;91.2476;3.6694;-8.7012;-11.4697;34.8100 
1748.595;0.4429;-0.3286;0.9653;-34.4238;16.6016;91.2476;3.3673;-8.6957;-10.9918;34.8000 
1748.595;0.4429;-0.3286;0.9653;-34.4238;16.6016;91.2476;3.0597;-8.6847;-10.5194;34.8000 
1748.595;0.4429;-0.3286;0.9653;-34.4238;16.6016;91.2476;2.7576;-8.6737;-10.0415;34.8000 
1748.595;0.4429;-0.3286;0.9653;-34.4238;16.6016;91.2476;2.4554;-8.6572;-9.5691;34.8000 
1748.595;0.4429;-0.3286;0.9653;-34.4238;16.6016;91.2476;2.1588;-8.6407;-9.0967;34.8800 
1748.595;0.4429;-0.3286;0.9653;-34.4238;16.6016;91.2476;1.8567;-8.6188;-8.6298;34.8800 
1748.595;0.3853;-0.4194;1.0176;-51.7578;27.2827;90.0879;1.4612;-8.5309;-8.1628;34.8000 
1748.595;0.3853;-0.4194;1.0176;-51.7578;27.2827;90.0879;1.0657;-8.4375;-7.6959;34.8000 
1748.595;0.3853;-0.4194;1.0176;-51.7578;27.2827;90.0879;0.6757;-8.3441;-7.2345;34.8500 
1748.595;0.3853;-0.4194;1.0176;-51.7578;27.2827;90.0879;0.2856;-8.2507;-6.7731;34.8500 
1748.605;0.3853;-0.4194;1.0176;-51.7578;27.2827;90.0879;-0.0934;-8.1464;-6.3116;34.7900 
1748.605;0.3853;-0.4194;1.0176;-51.7578;27.2827;90.0879;-0.4834;-8.0420;-5.8502;34.7900 
1748.615;0.3853;-0.4194;1.0176;-51.7578;27.2827;90.0879;-0.8679;-7.9376;-5.3943;34.7900 
1748.615;0.3853;-0.4194;1.0176;-51.7578;27.2827;90.0879;-1.2469;-7.8278;-4.9384;34.8100 
1748.625;0.3682;-0.4668;1.0752;-49.3774;29.1138;79.7119;-1.6095;-7.7069;-4.5374;34.8100 
1748.625;0.3682;-0.4668;1.0752;-49.3774;29.1138;79.7119;-1.9720;-7.5806;-4.1364;34.8000 
1748.635;0.3682;-0.4668;1.0752;-49.3774;29.1138;79.7119;-2.3346;-7.4487;-3.7354;34.8000 
1748.635;0.3682;-0.4668;1.0752;-49.3774;29.1138;79.7119;-2.6917;-7.3169;-3.3344;34.8000 
1748.645;0.3682;-0.4668;1.0752;-49.3774;29.1138;79.7119;-3.0487;-7.1851;-2.9388;34.8000 
1748.645;0.3682;-0.4668;1.0752;-49.3774;29.1138;79.7119;-3.4003;-7.0477;-2.5433;34.7600 
1748.665;0.3682;-0.4668;1.0752;-49.3774;29.1138;79.7119;-3.7518;-6.9104;-2.1478;34.7600 
1748.665;0.3682;-0.4668;1.0752;-49.3774;29.1138;79.7119;-4.1034;-6.7731;-1.7578;34.8100 
1748.665;0.3330;-0.4824;1.0571;-34.8511;22.9492;63.9648;-4.3726;-6.6632;-1.4447;34.8100 
1748.665;0.3330;-0.4824;1.0571;-34.8511;22.9492;63.9648;-4.6417;-6.5533;-1.1261;34.7600 
1748.665;0.3330;-0.4824;1.0571;-34.8511;22.9492;63.9648;-4.9054;-6.4435;-0.8130;34.7600 
1748.665;0.3330;-0.4824;1.0571;-34.8511;22.9492;63.9648;-5.1746;-6.3281;-0.5054;34.8100 
1748.795;0.3330;-0.4824;1.0571;-34.8511;22.9492;63.9648;-5.4382;-6.2128;-0.1923;34.8100 
1748.795;0.3330;-0.4824;1.0571;-34.8511;22.9492;63.9648;-5.6964;-6.1029;0.1099;34.7400 
1748.815;0.3330;-0.4824;1.0571;-34.8511;22.9492;63.9648;-5.9601;-5.9821;0.4230;34.7400 
1748.815;0.3330;-0.4824;1.0571;-34.8511;22.9492;63.9648;-6.2183;-5.8667;0.7251;34.7400 
1748.815;0.2866;-0.3931;1.0518;-18.0054;13.9771;48.5840;-6.3776;-5.7953;0.9613;34.8100 
1748.815;0.2866;-0.3931;1.0518;-18.0054;13.9771;48.5840;-6.5314;-5.7239;1.1920;34.8100 
1748.815;0.2866;-0.3931;1.0518;-18.0054;13.9771;48.5840;-6.6852;-5.6525;1.4282;34.8400 
1748.815;0.2866;-0.3931;1.0518;-18.0054;13.9771;48.5840;-6.8390;-5.5811;1.6644;34.8400 
1748.815;0.2866;-0.3931;1.0518;-18.0054;13.9771;48.5840;-6.9873;-5.5096;1.8951;34.7700 
1748.815;0.2866;-0.3931;1.0518;-18.0054;13.9771;48.5840;-7.1411;-5.4382;2.1259;34.7700 
1748.815;0.2866;-0.3931;1.0518;-18.0054;13.9771;48.5840;-7.2949;-5.3668;2.3621;34.7300 
1748.815;0.2866;-0.3931;1.0518;-18.0054;13.9771;48.5840;-7.4432;-5.2954;2.5928;34.7300 
1748.815;0.2734;-0.3472;1.0366;-2.8076;5.9204;36.0718;-7.5037;-5.2679;2.7631;34.8300 
1748.825;0.2734;-0.3472;1.0366;-2.8076;5.9204;36.0718;-7.5696;-5.2405;2.9333;34.8300 
1748.825;0.2734;-0.3472;1.0366;-2.8076;5.9204;36.0718;-7.6300;-5.2130;3.1091;34.8700 
1748.825;0.2734;-0.3472;1.0366;-2.8076;5.9204;36.0718;-7.6959;-5.1855;3.2794;34.8700 
1748.825;0.2734;-0.3472;1.0366;-2.8076;5.9204;36.0718;-7.7563;-5.1581;3.4497;34.7700 
1748.825;0.2734;-0.3472;1.0366;-2.8076;5.9204;36.0718;-7.8168;-5.1306;3.6255;34.7700 
1748.825;0.2734;-0.3472;1.0366;-2.8076;5.9204;36.0718;-7.8772;-5.1031;3.7958;34.7700 
1748.825;0.2734;-0.3472;1.0366;-2.8076;5.9204;36.0718;-7.9376;-5.0757;3.9661;34.8000 
1748.825;0.2881;-0.3369;1.0151;7.0801;0.2441;27.0386;-7.9486;-5.0867;4.0979;34.8000 
1748.825;0.2881;-0.3369;1.0151;7.0801;0.2441;27.0386;-7.9541;-5.0977;4.2297;34.8200 
1748.825;0.2881;-0.3369;1.0151;7.0801;0.2441;27.0386;-7.9596;-5.1086;4.3561;34.8200 
1748.835;0.2881;-0.3369;1.0151;7.0801;0.2441;27.0386;-7.9706;-5.1141;4.4879;34.8000 
1748.835;0.2881;-0.3369;1.0151;7.0801;0.2441;27.0386;-7.9761;-5.1251;4.6143;34.8000 
1748.835;0.2881;-0.3369;1.0151;7.0801;0.2441;27.0386;-7.9871;-5.1361;4.7461;34.8400 
1748.835;0.2881;-0.3369;1.0151;7.0801;0.2441;27.0386;-7.9926;-5.1471;4.8724;34.8400 
1748.846;0.2881;-0.3369;1.0151;7.0801;0.2441;27.0386;-7.9980;-5.1526;5.0043;34.7900 
1748.846;0.3130;-0.3525;1.0015;10.6812;-2.8076;20.4468;-7.9871;-5.1855;5.0977;34.7900 
1748.857;0.3130;-0.3525;1.0015;10.6812;-2.8076;20.4468;-7.9816;-5.2185;5.1965;34.8100 
1748.857;0.3130;-0.3525;1.0015;10.6812;-2.8076;20.4468;-7.9706;-5.2515;5.2954;34.8100 
1748.857;0.3130;-0.3525;1.0015;10.6812;-2.8076;20.4468;-7.9596;-5.2844;5.3943;34.8200 
1748.857;0.3130;-0.3525;1.0015;10.6812;-2.8076;20.4468;-7.9486;-5.3174;5.4932;34.8200 
1748.875;0.3130;-0.3525;1.0015;10.6812;-2.8076;20.4468;-7.9376;-5.3503;5.5920;34.8100 
1748.875;0.3130;-0.3525;1.0015;10.6812;-2.8076;20.4468;-7.9321;-5.3833;5.6909;34.8100 
1748.875;0.3130;-0.3525;1.0015;10.6812;-2.8076;20.4468;-7.9211;-5.4163;5.7898;34.8100 
1748.875;0.3105;-0.3359;0.9893;9.8267;-3.8452;15.3198;-7.9102;-5.4602;5.8667;34.8100 
1748.885;0.3105;-0.3359;0.9893;9.8267;-3.8452;15.3198;-7.9047;-5.4987;5.9381;34.8100 
1748.885;0.3105;-0.3359;0.9893;9.8267;-3.8452;15.3198;-7.8937;-5.5426;6.0150;34.7900 
1748.885;0.3105;-0.3359;0.9893;9.8267;-3.8452;15.3198;-7.8827;-5.5811;6.0864;34.7900 
1748.885;0.3105;-0.3359;0.9893;9.8267;-3.8452;15.3198;-7.8772;-5.6250;6.1578;34.8000 
1748.895;0.3105;-0.3359;0.9893;9.8267;-3.8452;15.3198;-7.8662;-5.6635;6.2347;34.8000 
1749.005;0.3105;-0.3359;0.9893;9.8267;-3.8452;15.3198;-7.8552;-5.7074;6.3062;34.7800 
1749.005;0.3105;-0.3359;0.9893;9.8267;-3.8452;15.3198;-7.8497;-5.7458;6.3776;34.7800 
1749.025;0.2705;-0.2813;0.9849;7.0801;-3.4180;10.7422;-7.8442;-5.7843;6.4215;34.8000 
1749.025;0.2705;-0.2813;0.9849;7.0801;-3.4180;10.7422;-7.8387;-5.8173;6.4709;34.8000 
1749.025;0.2705;-0.2813;0.9849;7.0801;-3.4180;10.7422;-7.8333;-5.8557;6.5204;34.8000 
1749.025;0.2705;-0.2813;0.9849;7.0801;-3.4180;10.7422;-7.8278;-5.8887;6.5698;34.8000 
1749.025;0.2705;-0.2813;0.9849;7.0801;-3.4180;10.7422;-7.8223;-5.9271;6.6193;34.7700 
1749.025;0.2705;-0.2813;0.9849;7.0801;-3.4180;10.7422;-7.8168;-5.9601;6.6632;34.7700 
1749.025;0.2705;-0.2813;0.9849;7.0801;-3.4180;10.7422;-7.8113;-5.9985;6.7126;34.8100 
1749.025;0.2705;-0.2813;0.9849;7.0801;-3.4180;10.7422;-7.8058;-6.0315;6.7566;34.8100 
1749.025;0.1978;-0.1831;0.9858;4.0283;-2.2583;6.7749;-7.8003;-6.0535;6.7841;34.8100 
1749.025;0.1978;-0.1831;0.9858;4.0283;-2.2583;6.7749;-7.7948;-6.0754;6.8060;34.7900 
1749.025;0.1978;-0.1831;0.9858;4.0283;-2.2583;6.7749;-7.7838;-6.0974;6.8280;34.7900 
1749.025;0.1978;-0.1831;0.9858;4.0283;-2.2583;6.7749;-7.7783;-6.1194;6.8500;34.8100 
1749.025;0.1978;-0.1831;0.9858;4.0283;-2.2583;6.7749;-7.7673;-6.1414;6.8719;34.8100 
1749.025;0.1978;-0.1831;0.9858;4.0283;-2.2583;6.7749;-7.7618;-6.1633;6.8994;34.7300 
1749.025;0.1978;-0.1831;0.9858;4.0283;-2.2583;6.7749;-7.7563;-6.1853;6.9214;34.7300 
1749.025;0.1978;-0.1831;0.9858;4.0283;-2.2583;6.7749;-7.7454;-6.2018;6.9489;34.7800 
1749.025;0.1279;-0.0884;0.9883;1.5869;-0.9766;3.5400;-7.7344;-6.2128;6.9543;34.7800 
1749.025;0.1279;-0.0884;0.9883;1.5869;-0.9766;3.5400;-7.7179;-6.2183;6.9598;34.7700 
1749.035;0.1279;-0.0884;0.9883;1.5869;-0.9766;3.5400;-7.7069;-6.2238;6.9653;34.7700 
1749.035;0.1279;-0.0884;0.9883;1.5869;-0.9766;3.5400;-7.6904;-6.2292;6.9708;34.7800 
1749.055;0.1279;-0.0884;0.9883;1.5869;-0.9766;3.5400;-7.6794;-6.2347;6.9763;34.7800 
1749.055;0.1279;-0.0884;0.9883;1.5869;-0.9766;3.5400;-7.6630;-6.2402;6.9818;34.8100 
1749.055;0.1279;-0.0884;0.9883;1.5869;-0.9766;3.5400;-7.6520;-6.2457;6.9873;34.8100 
1749.055;0.1279;-0.0884;0.9883;1.5869;-0.9766;3.5400;-7.6355;-6.2512;6.9928;34.8000 
1749.055;0.0762;-0.0186;0.9912;0.0000;0.0000;1.0376;-7.6190;-6.2457;6.9818;34.8000 
1749.055;0.0762;-0.0186;0.9912;0.0000;0.0000;1.0376;-7.5970;-6.2402;6.9763;34.8000 
1749.065;0.0762;-0.0186;0.9912;0.0000;0.0000;1.0376;-7.5806;-6.2347;6.9653;34.8700 
1749.065;0.0762;-0.0186;0.9912;0.0000;0.0000;1.0376;-7.5586;-6.2292;6.9598;34.8700 
1749.065;0.0762;-0.0186;0.9912;0.0000;0.0000;1.0376;-7.5421;-6.2238;6.9489;34.7800 
1749.065;0.0762;-0.0186;0.9912;0.0000;0.0000;1.0376;-7.5201;-6.2183;6.9434;34.7800 
1749.075;0.0762;-0.0186;0.9912;0.0000;0.0000;1.0376;-7.5037;-6.2128;6.9324;34.7600 
1749.075;0.0762;-0.0186;0.9912;0.0000;0.0000;1.0376;-7.4817;-6.2128;6.9214;34.7600 
1749.075;0.0479;0.0205;0.9932;-0.7324;0.5493;-0.4883;-7.4597;-6.1963;6.8994;34.8500 
1749.075;0.0479;0.0205;0.9932;-0.7324;0.5493;-0.4883;-7.4377;-6.1853;6.8829;34.8500 
1749.075;0.0479;0.0205;0.9932;-0.7324;0.5493;-0.4883;-7.4158;-6.1743;6.8610;34.8700 
1749.075;0.0479;0.0205;0.9932;-0.7324;0.5493;-0.4883;-7.3938;-6.1633;6.8445;34.8700 
1749.075;0.0479;0.0205;0.9932;-0.7324;0.5493;-0.4883;-7.3718;-6.1523;6.8280;34.8700 
1749.085;0.0479;0.0205;0.9932;-0.7324;0.5493;-0.4883;-7.3444;-6.1414;6.8115;34.8700 
1749.085;0.0479;0.0205;0.9932;-0.7324;0.5493;-0.4883;-7.3224;-6.1304;6.7950;34.7800 
1749.085;0.0479;0.0205;0.9932;-0.7324;0.5493;-0.4883;-7.3004;-6.1194;6.7786;34.7800 
1749.085;0.0386;0.0337;0.9946;-1.0376;0.6714;-1.1597;-7.2784;-6.1029;6.7621;34.7800 
1749.095;0.0386;0.0337;0.9946;-1.0376;0.6714;-1.1597;-7.2565;-6.0919;6.7456;34.8400 
1749.095;0.0386;0.0337;0.9946;-1.0376;0.6714;-1.1597;-7.2290;-6.0754;6.7236;34.8400 
1749.115;0.0386;0.0337;0.9946;-1.0376;0.6714;-1.1597;-7.2070;-6.0645;6.7072;34.7900 
1749.115;0.0386;0.0337;0.9946;-1.0376;0.6714;-1.1597;-7.1851;-6.0535;6.6907;34.7900 
1749.115;0.0386;0.0337;0.9946;-1.0376;0.6714;-1.1597;-7.1631;-6.0370;6.6742;34.8100 
1749.115;0.0386;0.0337;0.9946;-1.0376;0.6714;-1.1597;-7.1356;-6.0260;6.6577;34.8100 
1749.115;0.0386;0.0337;0.9946;-1.0376;0.6714;-1.1597;-7.1136;-6.0095;6.6412;34.7800 
1749.115;0.0420;0.0298;0.9951;-0.9155;0.5493;-1.2817;-7.0917;-5.9985;6.6248;34.7800 
1749.115;0.0420;0.0298;0.9951;-0.9155;0.5493;-1.2817;-7.0697;-5.9875;6.6138;34.8000 
1749.115;0.0420;0.0298;0.9951;-0.9155;0.5493;-1.2817;-7.0477;-5.9766;6.5973;34.8000 
1749.115;0.0420;0.0298;0.9951;-0.9155;0.5493;-1.2817;-7.0258;-5.9656;6.5808;34.8100 
1749.115;0.0420;0.0298;0.9951;-0.9155;0.5493;-1.2817;-6.9983;-5.9491;6.5643;34.8100 
1749.115;0.0420;0.0298;0.9951;-0.9155;0.5493;-1.2817;-6.9763;-5.9381;6.5479;34.8400 
1749.115;0.0420;0.0298;0.9951;-0.9155;0.5493;-1.2817;-6.9543;-5.9271;6.5314;34.8400 
1749.115;0.0420;0.0298;0.9951;-0.9155;0.5493;-1.2817;-6.9324;-5.9161;6.5149;34.7700 
1749.115;0.0513;0.0181;0.9951;-0.6104;0.3662;-0.9766;-6.9104;-5.9052;6.4984;34.7700 
1749.115;0.0513;0.0181;0.9951;-0.6104;0.3662;-0.9766;-6.8884;-5.8997;6.4819;34.7700 
1749.115;0.0513;0.0181;0.9951;-0.6104;0.3662;-0.9766;-6.8665;-5.8887;6.4655;34.7700 
1749.215;0.0513;0.0181;0.9951;-0.6104;0.3662;-0.9766;-6.8445;-5.8777;6.4490;34.7700 
1749.215;0.0513;0.0181;0.9951;-0.6104;0.3662;-0.9766;-6.8225;-5.8722;6.4325;34.8400 
1749.225;0.0513;0.0181;0.9951;-0.6104;0.3662;-0.9766;-6.8060;-5.8612;6.4105;34.8400 
1749.225;0.0513;0.0181;0.9951;-0.6104;0.3662;-0.9766;-6.7841;-5.8502;6.3940;34.8100 
1749.225;0.0513;0.0181;0.9951;-0.6104;0.3662;-0.9766;-6.7621;-5.8447;6.3721;34.8100 
1749.225;0.0610;0.0044;0.9951;-0.3052;0.1221;-0.5493;-6.7401;-5.8337;6.3556;34.7900 
1749.225;0.0610;0.0044;0.9951;-0.3052;0.1221;-0.5493;-6.7181;-5.8282;6.3336;34.7900 
1749.225;0.0610;0.0044;0.9951;-0.3052;0.1221;-0.5493;-6.7017;-5.8228;6.3171;34.8100 
1749.225;0.0610;0.0044;0.9951;-0.3052;0.1221;-0.5493;-6.6797;-5.8173;6.2952;34.8100 
1749.225;0.0610;0.0044;0.9951;-0.3052;0.1221;-0.5493;-6.6577;-5.8118;6.2787;34.8300 
1749.225;0.0610;0.0044;0.9951;-0.3052;0.1221;-0.5493;-6.6412;-5.8063;6.2567;34.8300 
1749.225;0.0610;0.0044;0.9951;-0.3052;0.1221;-0.5493;-6.6193;-5.8008;6.2402;34.8200 
1749.225;0.0693;-0.0059;0.9946;-0.0610;0.0000;-0.1831;-6.6028;-5.7953;6.2292;34.8200 
1749.225;0.0693;-0.0059;0.9946;-0.0610;0.0000;-0.1831;-6.5808;-5.7898;6.2128;34.8400 
1749.225;0.0693;-0.0059;0.9946;-0.0610;0.0000;-0.1831;-6.5643;-5.7843;6.1963;34.8400 
1749.225;0.0693;-0.0059;0.9946;-0.0610;0.0000;-0.1831;-6.5479;-5.7788;6.1798;34.8400 
1749.225;0.0693;-0.0059;0.9946;-0.0610;0.0000;-0.1831;-6.5259;-5.7788;6.1633;34.7500 
1749.225;0.0693;-0.0059;0.9946;-0.0610;0.0000;-0.1831;-6.5094;-5.7733;6.1523;34.7500 
1749.225;0.0693;-0.0059;0.9946;-0.0610;0.0000;-0.1831;-6.4874;-5.7678;6.1359;34.7900 
1749.225;0.0693;-0.0059;0.9946;-0.0610;0.0000;-0.1831;-6.4709;-5.7623;6.1249;34.7900 
1749.225;0.0742;-0.0127;0.9946;0.0000;-0.0610;0.0000;-6.4545;-5.7568;6.1139;34.7800 
1749.225;0.0742;-0.0127;0.9946;0.0000;-0.0610;0.0000;-6.4380;-5.7568;6.1029;34.7800 
1749.225;0.0742;-0.0127;0.9946;0.0000;-0.0610;0.0000;-6.4215;-5.7513;6.0919;34.8300 
1749.245;0.0742;-0.0127;0.9946;0.0000;-0.0610;0.0000;-6.3995;-5.7458;6.0809;34.8300 
1749.245;0.0742;-0.0127;0.9946;0.0000;-0.0610;0.0000;-6.3831;-5.7458;6.0699;34.7800 
1749.255;0.0742;-0.0127;0.9946;0.0000;-0.0610;0.0000;-6.3666;-5.7404;6.0590;34.7800 
1749.255;0.0742;-0.0127;0.9946;0.0000;-0.0610;0.0000;-6.3501;-5.7349;6.0480;34.8200 
1749.275;0.0742;-0.0127;0.9946;0.0000;-0.0610;0.0000;-6.3336;-5.7349;6.0370;34.8200 
1749.275;0.0767;-0.0156;0.9946;0.0610;-0.1221;0.1221;-6.3171;-5.7294;6.0260;34.7200 
1749.285;0.0767;-0.0156;0.9946;0.0610;-0.1221;0.1221;-6.3007;-5.7294;6.0150;34.7200 
1749.285;0.0767;-0.0156;0.9946;0.0610;-0.1221;0.1221;-6.2842;-5.7239;6.0040;34.8500 
1749.295;0.0767;-0.0156;0.9946;0.0610;-0.1221;0.1221;-6.2677;-5.7239;5.9930;34.8500 
1749.295;0.0767;-0.0156;0.9946;0.0610;-0.1221;0.1221;-6.2512;-5.7184;5.9821;34.8500 
1749.305;0.0767;-0.0156;0.9946;0.0610;-0.1221;0.1221;-6.2347;-5.7184;5.9711;34.7500 
1749.305;0.0767;-0.0156;0.9946;0.0610;-0.1221;0.1221;-6.2183;-5.7129;5.9656;34.7500 
1749.315;0.0767;-0.0156;0.9946;0.0610;-0.1221;0.1221;-6.2018;-5.7129;5.9546;34.7200 
1749.315;0.0762;-0.0161;0.9941;0.0610;-0.0610;0.1831;-6.1853;-5.7074;5.9436;34.7200 
1749.325;0.0762;-0.0161;0.9941;0.0610;-0.0610;0.1831;-6.1688;-5.7019;5.9381;34.7800 
1749.325;0.0762;-0.0161;0.9941;0.0610;-0.0610;0.1831;-6.1523;-5.7019;5.9271;34.7800 
1749.415;0.0762;-0.0161;0.9941;0.0610;-0.0610;0.1831;-6.1359;-5.6964;5.9161;34.8400 
1749.415;0.0762;-0.0161;0.9941;0.0610;-0.0610;0.1831;-6.1194;-5.6964;5.9052;34.8400 
1749.425;0.0762;-0.0161;0.9941;0.0610;-0.0610;0.1831;-6.1029;-5.6909;5.8942;34.7800 
1749.425;0.0762;-0.0161;0.9941;0.0610;-0.0610;0.1831;-6.0919;-5.6854;5.8832;34.7800 
1749.425;0.0762;-0.0161;0.9941;0.0610;-0.0610;0.1831;-6.0754;-5.6854;5.8722;34.7800 
1749.425;0.0752;-0.0146;0.9941;0.0610;-0.0610;0.1831;-6.0590;-5.6799;5.8612;34.7800 
1749.425;0.0752;-0.0146;0.9941;0.0610;-0.0610;0.1831;-6.0425;-5.6799;5.8502;34.7900 
1749.425;0.0752;-0.0146;0.9941;0.0610;-0.0610;0.1831;-6.0260;-5.6744;5.8392;34.7900 
1749.425;0.0752;-0.0146;0.9941;0.0610;-0.0610;0.1831;-6.0095;-5.6689;5.8337;34.7900 
1749.425;0.0752;-0.0146;0.9941;0.0610;-0.0610;0.1831;-5.9930;-5.6689;5.8228;34.7800 
1749.425;0.0752;-0.0146;0.9941;0.0610;-0.0610;0.1831;-5.9766;-5.6635;5.8118;34.7800 
1749.445;0.0752;-0.0146;0.9941;0.0610;-0.0610;0.1831;-5.9601;-5.6635;5.8008;34.8100 
1749.445;0.0752;-0.0146;0.9941;0.0610;-0.0610;0.1831;-5.9491;-5.6580;5.7953;34.8100 
1749.445;0.0737;-0.0132;0.9941;0.0000;0.0000;0.1221;-5.9326;-5.6525;5.7898;34.8500 
1749.445;0.0737;-0.0132;0.9941;0.0000;0.0000;0.1221;-5.9161;-5.6525;5.7788;34.8500 
1749.455;0.0737;-0.0132;0.9941;0.0000;0.0000;0.1221;-5.8997;-5.6470;5.7678;34.8300 
1749.455;0.0737;-0.0132;0.9941;0.0000;0.0000;0.1221;-5.8832;-5.6415;5.7568;34.8300 
1749.475;0.0737;-0.0132;0.9941;0.0000;0.0000;0.1221;-5.8667;-5.6415;5.7458;34.7700 
1749.475;0.0737;-0.0132;0.9941;0.0000;0.0000;0.1221;-5.8557;-5.6360;5.7349;34.7700 
1749.475;0.0737;-0.0132;0.9941;0.0000;0.0000;0.1221;-5.8392;-5.6305;5.7239;34.8700 
1749.475;0.0737;-0.0132;0.9941;0.0000;0.0000;0.1221;-5.8228;-5.6305;5.7074;34.8700 
1749.495;0.0723;-0.0112;0.9941;0.0000;0.0000;0.0610;-5.8063;-5.6250;5.6964;34.7800 
1749.495;0.0723;-0.0112;0.9941;0.0000;0.0000;0.0610;-5.7898;-5.6195;5.6854;34.7800 
1749.495;0.0723;-0.0112;0.9941;0.0000;0.0000;0.0610;-5.7733;-5.6140;5.6689;34.8400 
1749.495;0.0723;-0.0112;0.9941;0.0000;0.0000;0.0610;-5.7623;-5.6140;5.6525;34.8400 
1749.515;0.0723;-0.0112;0.9941;0.0000;0.0000;0.0610;-5.7458;-5.6085;5.6360;34.8400 
1749.515;0.0723;-0.0112;0.9941;0.0000;0.0000;0.0610;-5.7294;-5.6030;5.6250;34.8400 
1749.615;0.0723;-0.0112;0.9941;0.0000;0.0000;0.0610;-5.7129;-5.6030;5.6140;34.8400 
1749.615;0.0723;-0.0112;0.9941;0.0000;0.0000;0.0610;-5.6964;-5.5975;5.5975;34.7500 
1749.635;0.0713;-0.0103;0.9941;0.0000;0.0000;0.0000;-5.6799;-5.5920;5.5865;34.7500 
1749.635;0.0713;-0.0103;0.9941;0.0000;0.0000;0.0000;-5.6689;-5.5920;5.5701;34.9000 
1749.635;0.0713;-0.0103;0.9941;0.0000;0.0000;0.0000;-5.6525;-5.5865;5.5591;34.9000 
1749.635;0.0713;-0.0103;0.9941;0.0000;0.0000;0.0000;-5.6360;-5.5811;5.5426;34.8300 
1749.635;0.0713;-0.0103;0.9941;0.0000;0.0000;0.0000;-5.6195;-5.5756;5.5316;34.8300 
1749.635;0.0713;-0.0103;0.9941;0.0000;0.0000;0.0000;-5.6085;-5.5756;5.5206;34.8500 
1749.635;0.0713;-0.0103;0.9941;0.0000;0.0000;0.0000;-5.5920;-5.5701;5.5096;34.8500 
1749.645;0.0713;-0.0103;0.9941;0.0000;0.0000;0.0000;-5.5756;-5.5646;5.4987;34.8500 
1749.645;0.0708;-0.0098;0.9946;0.0000;0.0000;0.0000;-5.5591;-5.5646;5.4822;34.8500 
1749.665;0.0708;-0.0098;0.9946;0.0000;0.0000;0.0000;-5.5426;-5.5591;5.4712;34.8100 
1749.665;0.0708;-0.0098;0.9946;0.0000;0.0000;0.0000;-5.5316;-5.5536;5.4602;34.8100 
1749.675;0.0708;-0.0098;0.9946;0.0000;0.0000;0.0000;-5.5151;-5.5536;5.4492;34.7700 
1749.675;0.0708;-0.0098;0.9946;0.0000;0.0000;0.0000;-5.4987;-5.5481;5.4327;34.7700 
1749.685;0.0708;-0.0098;0.9946;0.0000;0.0000;0.0000;-5.4822;-5.5426;5.4218;34.7700 
1749.685;0.0708;-0.0098;0.9946;0.0000;0.0000;0.0000;-5.4712;-5.5371;5.4163;34.7900 
1749.695;0.0708;-0.0098;0.9946;0.0000;0.0000;0.0000;-5.4547;-5.5371;5.4053;34.7900 
1749.695;0.0708;-0.0098;0.9946;0.0000;0.0000;0.0000;-5.4382;-5.5316;5.3998;34.7300 
1749.695;0.0708;-0.0098;0.9946;0.0000;0.0000;0.0000;-5.4272;-5.5261;5.3888;34.7300 
1749.695;0.0708;-0.0098;0.9946;0.0000;0.0000;0.0000;-5.4108;-5.5206;5.3833;34.8000 
1749.705;0.0708;-0.0098;0.9946;0.0000;0.0000;0.0000;-5.3943;-5.5206;5.3723;34.8000 
1749.705;0.0708;-0.0098;0.9946;0.0000;0.0000;0.0000;-5.3833;-5.5151;5.3668;34.8500 
1749.725;0.0708;-0.0098;0.9946;0.0000;0.0000;0.0000;-5.3668;-5.5096;5.3558;34.8500 
1749.725;0.0708;-0.0098;0.9946;0.0000;0.0000;0.0000;-5.3503;-5.5096;5.3448;34.7800 
1749.725;0.0708;-0.0098;0.9946;0.0000;0.0000;0.0000;-5.3394;-5.5042;5.3339;34.7800 
1749.725;0.0708;-0.0098;0.9946;0.0000;0.0000;0.0000;-5.3229;-5.4987;5.3229;34.8200 
1749.835;0.0708;-0.0098;0.9946;0.0000;0.0000;0.0000;-5.3064;-5.4932;5.3119;34.8200 
1749.835;0.0708;-0.0098;0.9946;0.0000;0.0000;0.0000;-5.2954;-5.4932;5.3009;34.7800 
1749.855;0.0708;-0.0098;0.9946;0.0000;0.0000;0.0000;-5.2789;-5.4877;5.2899;34.7800 
1749.855;0.0708;-0.0098;0.9946;0.0000;0.0000;0.0000;-5.2679;-5.4822;5.2844;34.7500 
1749.855;0.0708;-0.0098;0.9946;0.0000;0.0000;0.0000;-5.2515;-5.4822;5.2734;34.7500 
1749.855;0.0708;-0.0098;0.9946;0.0000;0.0000;0.0000;-5.2350;-5.4767;5.2625;34.7500 
1749.855;0.0708;-0.0098;0.9946;0.0000;0.0000;0.0000;-5.2240;-5.4712;5.2515;34.8400 
1749.855;0.0713;-0.0098;0.9941;0.0000;0.0000;0.0000;-5.2075;-5.4712;5.2405;34.8400 
1749.855;0.0713;-0.0098;0.9941;0.0000;0.0000;0.0000;-5.1965;-5.4657;5.2295;34.7700 
1749.855;0.0713;-0.0098;0.9941;0.0000;0.0000;0.0000;-5.1801;-5.4602;5.2240;34.7700 
1749.855;0.0713;-0.0098;0.9941;0.0000;0.0000;0.0000;-5.1691;-5.4602;5.2130;34.7700 
1749.855;0.0713;-0.0098;0.9941;0.0000;0.0000;0.0000;-5.1526;-5.4547;5.2075;34.7700 
1749.855;0.0713;-0.0098;0.9941;0.0000;0.0000;0.0000;-5.1416;-5.4492;5.1965;34.7900 
1749.855;0.0713;-0.0098;0.9941;0.0000;0.0000;0.0000;-5.1251;-5.4492;5.1910;34.7900 
1749.855;0.0713;-0.0098;0.9941;0.0000;0.0000;0.0000;-5.1086;-5.4437;5.1855;34.8600 
1749.855;0.0713;-0.0103;0.9941;0.0000;0.0000;0.0000;-5.0977;-5.4382;5.1746;34.8600 
1749.855;0.0713;-0.0103;0.9941;0.0000;0.0000;0.0000;-5.0867;-5.4327;5.1691;34.9000 
1749.855;0.0713;-0.0103;0.9941;0.0000;0.0000;0.0000;-5.0702;-5.4327;5.1636;34.9000 
1749.855;0.0713;-0.0103;0.9941;0.0000;0.0000;0.0000;-5.0592;-5.4272;5.1581;34.7700 
1749.875;0.0713;-0.0103;0.9941;0.0000;0.0000;0.0000;-5.0427;-5.4218;5.1471;34.7700 
1749.875;0.0713;-0.0103;0.9941;0.0000;0.0000;0.0000;-5.0317;-5.4218;5.1361;34.7700 
1749.885;0.0713;-0.0103;0.9941;0.0000;0.0000;0.0000;-5.0153;-5.4163;5.1306;34.8300 
1749.885;0.0713;-0.0103;0.9941;0.0000;0.0000;0.0000;-5.0043;-5.4163;5.1196;34.8300 
1749.895;0.0713;-0.0103;0.9941;0.0000;0.0000;0.0000;-4.9878;-5.4108;5.1086;34.7900 
1749.895;0.0713;-0.0103;0.9941;0.0000;0.0000;0.0000;-4.9768;-5.4053;5.1031;34.7900 
1749.905;0.0713;-0.0103;0.9941;0.0000;0.0000;0.0000;-4.9603;-5.4053;5.0922;34.8100 
1749.905;0.0713;-0.0103;0.9941;0.0000;0.0000;0.0000;-4.9493;-5.3998;5.0812;34.8100 
1749.915;0.0713;-0.0103;0.9941;0.0000;0.0000;0.0000;-4.9384;-5.3943;5.0757;34.8400 
1749.915;0.0713;-0.0103;0.9941;0.0000;0.0000;0.0000;-4.9219;-5.3943;5.0647;34.8400 
1749.925;0.0713;-0.0103;0.9941;0.0000;0.0000;0.0000;-4.9109;-5.3888;5.0537;34.8500 
1749.925;0.0713;-0.0103;0.9941;0.0000;0.0000;0.0000;-4.8944;-5.3833;5.0427;34.8500 
1749.925;0.0718;-0.0103;0.9941;0.0000;0.0000;0.0000;-4.8834;-5.3833;5.0372;34.7500 
1749.925;0.0718;-0.0103;0.9941;0.0000;0.0000;0.0000;-4.8724;-5.3778;5.0262;34.7500 
1749.925;0.0718;-0.0103;0.9941;0.0000;0.0000;0.0000;-4.8560;-5.3723;5.0208;34.8600 
1749.925;0.0718;-0.0103;0.9941;0.0000;0.0000;0.0000;-4.8450;-5.3723;5.0098;34.8600 
1749.945;0.0718;-0.0103;0.9941;0.0000;0.0000;0.0000;-4.8340;-5.3668;4.9988;34.7800 
1749.945;0.0718;-0.0103;0.9941;0.0000;0.0000;0.0000;-4.8175;-5.3668;4.9933;34.7800 
1749.945;0.0718;-0.0103;0.9941;0.0000;0.0000;0.0000;-4.8065;-5.3613;4.9823;34.7800 
1749.945;0.0718;-0.0103;0.9941;0.0000;0.0000;0.0000;-4.7955;-5.3558;4.9768;34.8100 
1749.945;0.0718;-0.0103;0.9941;0.0000;0.0000;0.0000;-4.7791;-5.3558;4.9713;34.8100 
1749.945;0.0718;-0.0103;0.9941;0.0000;0.0000;0.0000;-4.7681;-5.3503;4.9658;34.8400 
1749.945;0.0718;-0.0103;0.9941;0.0000;0.0000;0.0000;-4.7571;-5.3503;4.9548;34.8400 
1749.945;0.0718;-0.0103;0.9941;0.0000;0.0000;0.0000;-4.7406;-5.3448;4.9493;34.7900 
1749.945;0.0718;-0.0103;0.9941;0.0000;0.0000;0.0000;-4.7296;-5.3394;4.9438;34.7900 
1749.945;0.0718;-0.0103;0.9941;0.0000;0.0000;0.0000;-4.7186;-5.3394;4.9329;34.8200 
1749.945;0.0718;-0.0103;0.9941;0.0000;0.0000;0.0000;-4.7076;-5.3339;4.9274;34.8200 
1750.045;0.0718;-0.0103;0.9941;0.0000;0.0000;0.0000;-4.6912;-5.3284;4.9164;34.8100 
1750.045;0.0723;-0.0103;0.9941;0.0000;0.0000;0.0000;-4.6802;-5.3284;4.9109;34.8100 
1750.045;0.0723;-0.0103;0.9941;0.0000;0.0000;0.0000;-4.6692;-5.3229;4.9054;34.8100 
1750.045;0.0723;-0.0103;0.9941;0.0000;0.0000;0.0000;-4.6582;-5.3229;4.8999;34.8100 
1750.045;0.0723;-0.0103;0.9941;0.0000;0.0000;0.0000;-4.6417;-5.3174;4.8944;34.7600 
1750.045;0.0723;-0.0103;0.9941;0.0000;0.0000;0.0000;-4.6307;-5.3119;4.8834;34.7600 
1750.045;0.0723;-0.0103;0.9941;0.0000;0.0000;0.0000;-4.6198;-5.3119;4.8779;34.8200 
1750.045;0.0723;-0.0103;0.9941;0.0000;0.0000;0.0000;-4.6088;-5.3064;4.8724;34.8200 
1750.045;0.0723;-0.0103;0.9941;0.0000;0.0000;0.0000;-4.5978;-5.3064;4.8615;34.8200 
1750.045;0.0723;-0.0103;0.9946;0.0000;0.0000;0.0000;-4.5813;-5.3009;4.8560;34.7100 
1750.065;0.0723;-0.0103;0.9946;0.0000;0.0000;0.0000;-4.5703;-5.3009;4.8450;34.7100 
1750.065;0.0723;-0.0103;0.9946;0.0000;0.0000;0.0000;-4.5593;-5.2954;4.8395;34.7800 
1750.065;0.0723;-0.0103;0.9946;0.0000;0.0000;0.0000;-4.5483;-5.2899;4.8340;34.7800 
1750.065;0.0723;-0.0103;0.9946;0.0000;0.0000;0.0000;-4.5374;-5.2899;4.8230;34.8100 
1750.065;0.0723;-0.0103;0.9946;0.0000;0.0000;0.0000;-4.5209;-5.2844;4.8175;34.8100 
1750.065;0.0723;-0.0103;0.9946;0.0000;0.0000;0.0000;-4.5099;-5.2844;4.8120;34.8000 
1750.065;0.0723;-0.0103;0.9946;0.0000;0.0000;0.0000;-4.4989;-5.2789;4.8010;34.8000 
1750.065;0.0723;-0.0107;0.9946;0.0000;0.0000;0.0000;-4.4879;-5.2789;4.7955;34.8000 
1750.065;0.0723;-0.0107;0.9946;0.0000;0.0000;0.0000;-4.4769;-5.2734;4.7900;34.8000 
1750.065;0.0723;-0.0107;0.9946;0.0000;0.0000;0.0000;-4.4659;-5.2679;4.7791;34.8400 
1750.065;0.0723;-0.0107;0.9946;0.0000;0.0000;0.0000;-4.4550;-5.2679;4.7736;34.8400 
1750.065;0.0723;-0.0107;0.9946;0.0000;0.0000;0.0000;-4.4385;-5.2625;4.7681;34.7300 
1750.065;0.0723;-0.0107;0.9946;0.0000;0.0000;0.0000;-4.4275;-5.2625;4.7571;34.7300 
1750.065;0.0723;-0.0107;0.9946;0.0000;0.0000;0.0000;-4.4165;-5.2570;4.7516;34.8600 
1750.065;0.0723;-0.0107;0.9946;0.0000;0.0000;0.0000;-4.4055;-5.2570;4.7406;34.8600 
1750.065;0.0723;-0.0103;0.9946;0.0000;0.0000;0.0000;-4.3945;-5.2515;4.7351;34.8600 
1750.065;0.0723;-0.0103;0.9946;0.0000;0.0000;0.0000;-4.3835;-5.2515;4.7241;34.8200 
1750.065;0.0723;-0.0103;0.9946;0.0000;0.0000;0.0000;-4.3726;-5.2460;4.7186;34.8200 
1750.065;0.0723;-0.0103;0.9946;0.0000;0.0000;0.0000;-4.3616;-5.2405;4.7076;34.7700 
1750.065;0.0723;-0.0103;0.9946;0.0000;0.0000;0.0000;-4.3506;-5.2405;4.7021;34.7700 
1750.065;0.0723;-0.0103;0.9946;0.0000;0.0000;0.0000;-4.3396;-5.2350;4.6912;34.7900 
1750.065;0.0723;-0.0103;0.9946;0.0000;0.0000;0.0000;-4.3286;-5.2350;4.6802;34.7900 
1750.065;0.0723;-0.0103;0.9946;0.0000;0.0000;0.0000;-4.3121;-5.2295;4.6692;34.7800 
1750.065;0.0718;-0.0103;0.9946;0.0000;0.0000;0.0000;-4.3011;-5.2295;4.6637;34.7800 
1750.065;0.0718;-0.0103;0.9946;0.0000;0.0000;0.0000;-4.2902;-5.2240;4.6527;34.7800 
1750.065;0.0718;-0.0103;0.9946;0.0000;0.0000;0.0000;-4.2792;-5.2240;4.6417;34.7800 
1750.065;0.0718;-0.0103;0.9946;0.0000;0.0000;0.0000;-4.2682;-5.2185;4.6307;34.7700 
1750.065;0.0718;-0.0103;0.9946;0.0000;0.0000;0.0000;-4.2572;-5.2185;4.6252;34.7700 
1750.065;0.0718;-0.0103;0.9946;0.0000;0.0000;0.0000;-4.2462;-5.2130;4.6143;34.8200 
1750.065;0.0718;-0.0103;0.9946;0.0000;0.0000;0.0000;-4.2352;-5.2130;4.6088;34.8200 
1750.085;0.0718;-0.0103;0.9946;0.0000;0.0000;0.0000;-4.2242;-5.2075;4.6033;34.8200 
1750.085;0.0713;-0.0103;0.9946;0.0000;0.0000;0.0000;-4.2133;-5.2020;4.5923;34.8700 
1750.085;0.0713;-0.0103;0.9946;0.0000;0.0000;0.0000;-4.2023;-5.2020;4.5868;34.8700 
1750.085;0.0713;-0.0103;0.9946;0.0000;0.0000;0.0000;-4.1913;-5.1965;4.5813;34.8600 
1750.085;0.0713;-0.0103;0.9946;0.0000;0.0000;0.0000;-4.1803;-5.1965;4.5813;34.8600 
1750.105;0.0713;-0.0103;0.9946;0.0000;0.0000;0.0000;-4.1693;-5.1910;4.5758;34.8200 
1750.105;0.0713;-0.0103;0.9946;0.0000;0.0000;0.0000;-4.1583;-5.1910;4.5703;34.8200 
1750.125;0.0713;-0.0103;0.9946;0.0000;0.0000;0.0000;-4.1473;-5.1855;4.5703;34.8300 
1750.125;0.0713;-0.0103;0.9946;0.0000;0.0000;0.0000;-4.1364;-5.1801;4.5648;34.8300 
1750.145;0.0713;-0.0103;0.9946;0.0000;0.0000;0.0000;-4.1254;-5.1801;4.5593;34.7900 
1750.145;0.0713;-0.0103;0.9946;0.0000;0.0000;0.0000;-4.1144;-5.1746;4.5538;34.7900 
1750.155;0.0713;-0.0103;0.9946;0.0000;0.0000;0.0000;-4.1089;-5.1746;4.5483;34.7900 
1750.155;0.0713;-0.0103;0.9946;0.0000;0.0000;0.0000;-4.0979;-5.1691;4.5428;34.7900 
1750.155;0.0713;-0.0103;0.9946;0.0000;0.0000;0.0000;-4.0869;-5.1691;4.5374;34.7300 
1750.155;0.0713;-0.0103;0.9946;0.0000;0.0000;0.0000;-4.0759;-5.1636;4.5319;34.7300 
1750.155;0.0713;-0.0103;0.9946;0.0000;0.0000;0.0000;-4.0649;-5.1636;4.5209;34.7700 
1750.155;0.0713;-0.0103;0.9946;0.0000;0.0000;0.0000;-4.0540;-5.1581;4.5154;34.7700 
1750.155;0.0713;-0.0103;0.9951;0.0000;0.0000;0.0000;-4.0430;-5.1526;4.5099;34.7700 
1750.155;0.0713;-0.0103;0.9951;0.0000;0.0000;0.0000;-4.0320;-5.1526;4.5044;34.7900 
1750.245;0.0713;-0.0103;0.9951;0.0000;0.0000;0.0000;-4.0210;-5.1471;4.4989;34.7900 
1750.245;0.0713;-0.0103;0.9951;0.0000;0.0000;0.0000;-4.0100;-5.1471;4.4989;34.8100 
1750.245;0.0713;-0.0103;0.9951;0.0000;0.0000;0.0000;-3.9990;-5.1416;4.4934;34.8100 
1750.245;0.0713;-0.0103;0.9951;0.0000;0.0000;0.0000;-3.9935;-5.1416;4.4879;34.8200 
1750.245;0.0713;-0.0103;0.9951;0.0000;0.0000;0.0000;-3.9825;-5.1361;4.4824;34.8200 
1750.245;0.0713;-0.0103;0.9951;0.0000;0.0000;0.0000;-3.9716;-5.1361;4.4769;34.8500 
1750.245;0.0713;-0.0103;0.9946;0.0000;0.0000;0.0000;-3.9606;-5.1306;4.4714;34.8500 
1750.255;0.0713;-0.0103;0.9946;0.0000;0.0000;0.0000;-3.9496;-5.1306;4.4604;34.8400 
1750.255;0.0713;-0.0103;0.9946;0.0000;0.0000;0.0000;-3.9386;-5.1251;4.4550;34.8400 
1750.255;0.0713;-0.0103;0.9946;0.0000;0.0000;0.0000;-3.9276;-5.1251;4.4495;34.7900 
1750.255;0.0713;-0.0103;0.9946;0.0000;0.0000;0.0000;-3.9221;-5.1196;4.4440;34.7900 
1750.255;0.0713;-0.0103;0.9946;0.0000;0.0000;0.0000;-3.9111;-5.1196;4.4385;34.7900 
1750.255;0.0713;-0.0103;0.9946;0.0000;0.0000;0.0000;-3.9001;-5.1141;4.4275;34.7900 
1750.274;0.0713;-0.0103;0.9946;0.0000;0.0000;0.0000;-3.8892;-5.1086;4.4220;34.8100 
1750.274;0.0718;-0.0103;0.9941;0.0000;0.0000;0.0000;-3.8782;-5.1086;4.4165;34.8100 
1750.284;0.0718;-0.0103;0.9941;0.0000;0.0000;0.0000;-3.8672;-5.1031;4.4110;34.8100 
1750.284;0.0718;-0.0103;0.9941;0.0000;0.0000;0.0000;-3.8617;-5.1031;4.4055;34.8700 
1750.284;0.0718;-0.0103;0.9941;0.0000;0.0000;0.0000;-3.8507;-5.0977;4.4000;34.8700 
1750.284;0.0718;-0.0103;0.9941;0.0000;0.0000;0.0000;-3.8397;-5.0977;4.3890;34.8600 
1750.284;0.0718;-0.0103;0.9941;0.0000;0.0000;0.0000;-3.8287;-5.0977;4.3835;34.8600 
1750.284;0.0718;-0.0103;0.9941;0.0000;0.0000;0.0000;-3.8177;-5.0922;4.3781;34.8100 
1750.305;0.0718;-0.0103;0.9941;0.0000;0.0000;0.0000;-3.8123;-5.0922;4.3726;34.8100 
1750.305;0.0718;-0.0098;0.9941;0.0000;0.0000;0.0000;-3.8013;-5.0867;4.3671;34.8000 
1750.315;0.0718;-0.0098;0.9941;0.0000;0.0000;0.0000;-3.7903;-5.0867;4.3616;34.8000 
1750.315;0.0718;-0.0098;0.9941;0.0000;0.0000;0.0000;-3.7793;-5.0812;4.3561;34.7600 
1750.315;0.0718;-0.0098;0.9941;0.0000;0.0000;0.0000;-3.7738;-5.0812;4.3506;34.7600 
1750.315;0.0718;-0.0098;0.9941;0.0000;0.0000;0.0000;-3.7628;-5.0757;4.3451;34.7900 
1750.334;0.0718;-0.0098;0.9941;0.0000;0.0000;0.0000;-3.7518;-5.0757;4.3451;34.7900 
1750.334;0.0718;-0.0098;0.9941;0.0000;0.0000;0.0000;-3.7408;-5.0702;4.3396;34.7700 
1750.354;0.0718;-0.0098;0.9941;0.0000;0.0000;0.0000;-3.7354;-5.0702;4.3396;34.7700 
1750.354;0.0718;-0.0098;0.9937;0.0000;0.0000;0.0000;-3.7244;-5.0647;4.3341;34.8800 
1750.354;0.0718;-0.0098;0.9937;0.0000;0.0000;0.0000;-3.7134;-5.0647;4.3286;34.8800 
1750.354;0.0718;-0.0098;0.9937;0.0000;0.0000;0.0000;-3.7024;-5.0592;4.3231;34.8800 
1750.454;0.0718;-0.0098;0.9937;0.0000;0.0000;0.0000;-3.6969;-5.0592;4.3176;34.8000 
1750.454;0.0718;-0.0098;0.9937;0.0000;0.0000;0.0000;-3.6859;-5.0537;4.3121;34.8000 
1750.474;0.0718;-0.0098;0.9937;0.0000;0.0000;0.0000;-3.6749;-5.0537;4.3066;34.8300 
1750.474;0.0718;-0.0098;0.9937;0.0000;0.0000;0.0000;-3.6639;-5.0482;4.3011;34.8300 
1750.474;0.0718;-0.0098;0.9937;0.0000;0.0000;0.0000;-3.6584;-5.0482;4.2957;34.8000 
1750.474;0.0718;-0.0098;0.9937;0.0000;0.0000;0.0000;-3.6475;-5.0427;4.2957;34.8000 
1750.474;0.0718;-0.0098;0.9937;0.0000;0.0000;0.0000;-3.6365;-5.0427;4.2902;34.7300 
1750.474;0.0718;-0.0098;0.9937;0.0000;0.0000;0.0000;-3.6310;-5.0372;4.2847;34.7300 
1750.474;0.0718;-0.0098;0.9937;0.0000;0.0000;0.0000;-3.6200;-5.0372;4.2792;34.7900 
1750.474;0.0718;-0.0098;0.9937;0.0000;0.0000;0.0000;-3.6090;-5.0317;4.2737;34.7900 
1750.474;0.0718;-0.0098;0.9937;0.0000;0.0000;0.0000;-3.6035;-5.0317;4.2682;34.7600 
1750.474;0.0718;-0.0098;0.9937;0.0000;0.0000;0.0000;-3.5925;-5.0262;4.2627;34.7600 
1750.474;0.0718;-0.0098;0.9937;0.0000;0.0000;0.0000;-3.5815;-5.0262;4.2572;34.8700 
1750.474;0.0718;-0.0098;0.9937;0.0000;0.0000;0.0000;-3.5760;-5.0208;4.2517;34.8700 
1750.474;0.0718;-0.0098;0.9937;0.0000;0.0000;0.0000;-3.5651;-5.0208;4.2462;34.8700 
1750.474;0.0718;-0.0098;0.9937;0.0000;0.0000;0.0000;-3.5541;-5.0208;4.2462;34.8500 
1750.474;0.0718;-0.0098;0.9937;0.0000;0.0000;0.0000;-3.5486;-5.0153;4.2407;34.8500 
1750.474;0.0718;-0.0098;0.9937;0.0000;0.0000;0.0000;-3.5376;-5.0153;4.2352;34.8600 
1750.474;0.0718;-0.0098;0.9937;0.0000;0.0000;0.0000;-3.5266;-5.0098;4.2297;34.8600 
1750.474;0.0718;-0.0098;0.9937;0.0000;0.0000;0.0000;-3.5211;-5.0098;4.2297;34.7700 
1750.474;0.0718;-0.0098;0.9937;0.0000;0.0000;0.0000;-3.5101;-5.0043;4.2242;34.7700 
1750.474;0.0718;-0.0093;0.9937;0.0000;0.0000;0.0000;-3.5046;-5.0043;4.2188;34.7500 
1750.474;0.0718;-0.0093;0.9937;0.0000;0.0000;0.0000;-3.4937;-4.9988;4.2133;34.7500 
1750.474;0.0718;-0.0093;0.9937;0.0000;0.0000;0.0000;-3.4827;-4.9988;4.2078;34.7700 
1750.474;0.0718;-0.0093;0.9937;0.0000;0.0000;0.0000;-3.4772;-4.9933;4.1968;34.7700 
1750.494;0.0718;-0.0093;0.9937;0.0000;0.0000;0.0000;-3.4662;-4.9933;4.1913;34.7700 
1750.494;0.0718;-0.0093;0.9937;0.0000;0.0000;0.0000;-3.4552;-4.9933;4.1858;34.7700 
1750.494;0.0718;-0.0093;0.9937;0.0000;0.0000;0.0000;-3.4497;-4.9878;4.1748;34.7800 
1750.494;0.0718;-0.0093;0.9937;0.0000;0.0000;0.0000;-3.4387;-4.9878;4.1693;34.7800 
1750.494;0.0718;-0.0098;0.9937;0.0000;0.0000;0.0000;-3.4332;-4.9823;4.1638;34.8400 
1750.494;0.0718;-0.0098;0.9937;0.0000;0.0000;0.0000;-3.4222;-4.9823;4.1528;34.8400 
1750.494;0.0718;-0.0098;0.9937;0.0000;0.0000;0.0000;-3.4113;-4.9768;4.1473;34.8400 
1750.494;0.0718;-0.0098;0.9937;0.0000;0.0000;0.0000;-3.4058;-4.9768;4.1418;34.8200 
1750.504;0.0718;-0.0098;0.9937;0.0000;0.0000;0.0000;-3.3948;-4.9768;4.1309;34.8200 
1750.504;0.0718;-0.0098;0.9937;0.0000;0.0000;0.0000;-3.3893;-4.9713;4.1254;34.8400 
1750.504;0.0718;-0.0098;0.9937;0.0000;0.0000;0.0000;-3.3783;-4.9713;4.1144;34.8400 
1750.524;0.0718;-0.0098;0.9937;0.0000;0.0000;0.0000;-3.3728;-4.9658;4.1034;34.7500 
1750.524;0.0718;-0.0093;0.9941;0.0000;0.0000;0.0000;-3.3618;-4.9658;4.0979;34.7500 
1750.524;0.0718;-0.0093;0.9941;0.0000;0.0000;0.0000;-3.3563;-4.9658;4.0869;34.8200 
1750.524;0.0718;-0.0093;0.9941;0.0000;0.0000;0.0000;-3.3453;-4.9603;4.0759;34.8200 
1750.524;0.0718;-0.0093;0.9941;0.0000;0.0000;0.0000;-3.3344;-4.9603;4.0704;34.7400 
1750.524;0.0718;-0.0093;0.9941;0.0000;0.0000;0.0000;-3.3289;-4.9548;4.0594;34.7400 
1750.534;0.0718;-0.0093;0.9941;0.0000;0.0000;0.0000;-3.3179;-4.9548;4.0540;34.7900 
1750.534;0.0718;-0.0093;0.9941;0.0000;0.0000;0.0000;-3.3124;-4.9493;4.0485;34.7900 
1750.534;0.0718;-0.0093;0.9941;0.0000;0.0000;0.0000;-3.3014;-4.9493;4.0375;34.8600 
1750.534;0.0723;-0.0098;0.9941;0.0000;0.0000;0.0000;-3.2959;-4.9493;4.0320;34.8600 
1750.534;0.0723;-0.0098;0.9941;0.0000;0.0000;0.0000;-3.2849;-4.9438;4.0210;34.7900 
1750.534;0.0723;-0.0098;0.9941;0.0000;0.0000;0.0000;-3.2794;-4.9438;4.0155;34.7900 
1750.554;0.0723;-0.0098;0.9941;0.0000;0.0000;0.0000;-3.2684;-4.9384;4.0045;34.7900 
1750.554;0.0723;-0.0098;0.9941;0.0000;0.0000;0.0000;-3.2629;-4.9384;3.9990;34.8200 
1750.554;0.0723;-0.0098;0.9941;0.0000;0.0000;0.0000;-3.2520;-4.9384;3.9935;34.8200 
1750.554;0.0723;-0.0098;0.9941;0.0000;0.0000;0.0000;-3.2465;-4.9329;3.9825;34.7700 
1750.554;0.0723;-0.0098;0.9941;0.0000;0.0000;0.0000;-3.2355;-4.9329;3.9771;34.7700 
1750.554;0.0723;-0.0098;0.9946;0.0000;0.0000;0.0000;-3.2300;-4.9274;3.9716;34.8100 
1750.664;0.0723;-0.0098;0.9946;0.0000;0.0000;0.0000;-3.2190;-4.9274;3.9716;34.8100 
1750.664;0.0723;-0.0098;0.9946;0.0000;0.0000;0.0000;-3.2135;-4.9274;3.9661;34.8400 
1750.684;0.0723;-0.0098;0.9946;0.0000;0.0000;0.0000;-3.2025;-4.9219;3.9606;34.8400 
1750.684;0.0723;-0.0098;0.9946;0.0000;0.0000;0.0000;-3.1970;-4.9219;3.9551;34.7800 
1750.684;0.0723;-0.0098;0.9946;0.0000;0.0000;0.0000;-3.1915;-4.9164;3.9496;34.7800 
1750.684;0.0723;-0.0098;0.9946;0.0000;0.0000;0.0000;-3.1805;-4.9164;3.9386;34.8300 
1750.684;0.0723;-0.0098;0.9946;0.0000;0.0000;0.0000;-3.1750;-4.9164;3.9331;34.8300 
1750.684;0.0723;-0.0098;0.9946;0.0000;0.0000;0.0000;-3.1641;-4.9109;3.9276;34.7600 
1750.684;0.0723;-0.0098;0.9946;0.0000;0.0000;0.0000;-3.1586;-4.9109;3.9221;34.7600 
1750.684;0.0723;-0.0098;0.9946;0.0000;0.0000;0.0000;-3.1476;-4.9109;3.9166;34.7600 
1750.684;0.0723;-0.0098;0.9946;0.0000;0.0000;0.0000;-3.1421;-4.9054;3.9166;34.7600 
1750.684;0.0723;-0.0098;0.9946;0.0000;0.0000;0.0000;-3.1311;-4.9054;3.9166;34.7600 
1750.684;0.0723;-0.0098;0.9946;0.0000;0.0000;0.0000;-3.1256;-4.8999;3.9111;34.7900 
1750.684;0.0723;-0.0098;0.9946;0.0000;0.0000;0.0000;-3.1201;-4.8999;3.9111;34.7900 
1750.684;0.0723;-0.0098;0.9946;0.0000;0.0000;0.0000;-3.1091;-4.8999;3.9111;34.8400 
1750.684;0.0723;-0.0098;0.9951;0.0000;0.0000;0.0000;-3.1036;-4.8944;3.9111;34.8400 
1750.684;0.0723;-0.0098;0.9951;0.0000;0.0000;0.0000;-3.0927;-4.8944;3.9111;34.8200 
1750.684;0.0723;-0.0098;0.9951;0.0000;0.0000;0.0000;-3.0872;-4.8889;3.9111;34.8200 
1750.684;0.0723;-0.0098;0.9951;0.0000;0.0000;0.0000;-3.0817;-4.8889;3.9111;34.8100 
1750.684;0.0723;-0.0098;0.9951;0.0000;0.0000;0.0000;-3.0707;-4.8889;3.9111;34.8100 
1750.684;0.0723;-0.0098;0.9951;0.0000;0.0000;0.0000;-3.0652;-4.8834;3.9111;34.8300 
1750.684;0.0723;-0.0098;0.9951;0.0000;0.0000;0.0000;-3.0597;-4.8834;3.9056;34.8300 
1750.684;0.0723;-0.0098;0.9951;0.0000;0.0000;0.0000;-3.0487;-4.8779;3.9056;34.8400 
1750.684;0.0718;-0.0098;0.9951;0.0000;0.0000;0.0000;-3.0432;-4.8779;3.9001;34.8400 
1750.684;0.0718;-0.0098;0.9951;0.0000;0.0000;0.0000;-3.0322;-4.8779;3.8947;34.7700 
1750.684;0.0718;-0.0098;0.9951;0.0000;0.0000;0.0000;-3.0267;-4.8724;3.8892;34.7700 
1750.684;0.0718;-0.0098;0.9951;0.0000;0.0000;0.0000;-3.0212;-4.8724;3.8837;34.7700 
1750.704;0.0718;-0.0098;0.9951;0.0000;0.0000;0.0000;-3.0103;-4.8669;3.8782;34.8300 
1750.704;0.0718;-0.0098;0.9951;0.0000;0.0000;0.0000;-3.0048;-4.8669;3.8727;34.8300 
1750.704;0.0718;-0.0098;0.9951;0.0000;0.0000;0.0000;-2.9993;-4.8669;3.8727;34.7900 
1750.704;0.0718;-0.0098;0.9951;0.0000;0.0000;0.0000;-2.9883;-4.8615;3.8672;34.7900 
1750.704;0.0718;-0.0098;0.9951;0.0000;0.0000;0.0000;-2.9828;-4.8615;3.8617;34.7700 
1750.704;0.0718;-0.0098;0.9951;0.0000;0.0000;0.0000;-2.9773;-4.8560;3.8562;34.7700 
1750.704;0.0718;-0.0098;0.9951;0.0000;0.0000;0.0000;-2.9663;-4.8560;3.8507;34.8100 
1750.704;0.0718;-0.0098;0.9951;0.0000;0.0000;0.0000;-2.9608;-4.8560;3.8507;34.8100 
1750.714;0.0718;-0.0098;0.9951;0.0000;0.0000;0.0000;-2.9553;-4.8505;3.8452;34.8100 
1750.714;0.0718;-0.0098;0.9951;0.0000;0.0000;0.0000;-2.9443;-4.8505;3.8397;34.8100 
1750.724;0.0718;-0.0098;0.9951;0.0000;0.0000;0.0000;-2.9388;-4.8505;3.8397;34.8200 
1750.744;0.0718;-0.0098;0.9951;0.0000;0.0000;0.0000;-2.9333;-4.8450;3.8397;34.8200 
1750.744;0.0718;-0.0098;0.9951;0.0000;0.0000;0.0000;-2.9279;-4.8450;3.8342;34.8200 
1750.744;0.0718;-0.0098;0.9951;0.0000;0.0000;0.0000;-2.9169;-4.8395;3.8287;34.8200 
1750.754;0.0718;-0.0098;0.9951;0.0000;0.0000;0.0000;-2.9114;-4.8395;3.8287;34.7600 
1750.754;0.0718;-0.0098;0.9951;0.0000;0.0000;0.0000;-2.9059;-4.8395;3.8232;34.7600 
1750.754;0.0718;-0.0098;0.9951;0.0000;0.0000;0.0000;-2.8949;-4.8340;3.8232;34.7600 
1750.774;0.0718;-0.0098;0.9951;0.0000;0.0000;0.0000;-2.8894;-4.8340;3.8232;34.8000 
1750.774;0.0718;-0.0098;0.9951;0.0000;0.0000;0.0000;-2.8839;-4.8340;3.8177;34.8000 
1750.774;0.0718;-0.0098;0.9951;0.0000;0.0000;0.0000;-2.8784;-4.8285;3.8177;34.7400 
1750.774;0.0718;-0.0098;0.9946;0.0000;0.0000;0.0000;-2.8674;-4.8285;3.8123;34.7400 
1750.874;0.0718;-0.0098;0.9946;0.0000;0.0000;0.0000;-2.8619;-4.8230;3.8068;34.8300 
1750.874;0.0718;-0.0098;0.9946;0.0000;0.0000;0.0000;-2.8564;-4.8230;3.8013;34.8300 
1750.884;0.0718;-0.0098;0.9946;0.0000;0.0000;0.0000;-2.8455;-4.8230;3.8013;34.8400 
1750.884;0.0718;-0.0098;0.9946;0.0000;0.0000;0.0000;-2.8400;-4.8175;3.7958;34.8400 
1750.884;0.0718;-0.0098;0.9946;0.0000;0.0000;0.0000;-2.8345;-4.8175;3.7958;34.8200 
1750.884;0.0718;-0.0098;0.9946;0.0000;0.0000;0.0000;-2.8290;-4.8175;3.7958;34.8200 
1750.884;0.0718;-0.0098;0.9946;0.0000;0.0000;0.0000;-2.8180;-4.8120;3.7903;34.8600 
1750.884;0.0718;-0.0098;0.9946;0.0000;0.0000;0.0000;-2.8125;-4.8120;3.7903;34.8600 
1750.884;0.0718;-0.0098;0.9946;0.0000;0.0000;0.0000;-2.8070;-4.8065;3.7848;34.8400 
1750.884;0.0718;-0.0098;0.9946;0.0000;0.0000;0.0000;-2.8015;-4.8065;3.7793;34.8400 
1750.884;0.0718;-0.0098;0.9946;0.0000;0.0000;0.0000;-2.7905;-4.8065;3.7793;34.8200 
1750.884;0.0718;-0.0098;0.9946;0.0000;0.0000;0.0000;-2.7850;-4.8010;3.7793;34.8200 
1750.884;0.0718;-0.0098;0.9946;0.0000;0.0000;0.0000;-2.7795;-4.8010;3.7793;34.8200 
1750.884;0.0718;-0.0098;0.9946;0.0000;0.0000;0.0000;-2.7740;-4.8010;3.7793;34.7900 
1750.884;0.0718;-0.0098;0.9946;0.0000;0.0000;0.0000;-2.7686;-4.7955;3.7793;34.7900 
1750.884;0.0718;-0.0098;0.9941;0.0000;0.0000;0.0000;-2.7576;-4.7955;3.7793;34.8400 
1750.884;0.0718;-0.0098;0.9941;0.0000;0.0000;0.0000;-2.7521;-4.7955;3.7793;34.8400 
1750.884;0.0718;-0.0098;0.9941;0.0000;0.0000;0.0000;-2.7466;-4.7900;3.7793;34.7700 
1750.884;0.0718;-0.0098;0.9941;0.0000;0.0000;0.0000;-2.7411;-4.7900;3.7793;34.7700 
1750.884;0.0718;-0.0098;0.9941;0.0000;0.0000;0.0000;-2.7356;-4.7900;3.7793;34.7700 
1750.894;0.0718;-0.0098;0.9941;0.0000;0.0000;0.0000;-2.7246;-4.7845;3.7793;34.7700 
1750.894;0.0718;-0.0098;0.9941;0.0000;0.0000;0.0000;-2.7191;-4.7845;3.7793;34.8200 
1751.164;0.0718;-0.0098;0.9941;0.0000;0.0000;0.0000;-2.7136;-4.7791;3.7793;34.8200 
1751.184;0.0718;-0.0098;0.9941;0.0000;0.0000;0.0000;-2.7081;-4.7791;3.7793;34.8100 
1751.184;0.0718;-0.0098;0.9941;0.0000;0.0000;0.0000;-2.7026;-4.7791;3.7793;34.8100 
1751.184;0.0718;-0.0098;0.9941;0.0000;0.0000;0.0000;-2.6971;-4.7736;3.7793;34.8200 
1751.184;0.0718;-0.0098;0.9941;0.0000;0.0000;0.0000;-2.6862;-4.7736;3.7793;34.8200 
1751.184;0.0718;-0.0098;0.9941;0.0000;0.0000;0.0000;-2.6807;-4.7736;3.7793;34.8200 
1751.184;0.0718;-0.0098;0.9941;0.0000;0.0000;0.0000;-2.6752;-4.7681;3.7793;34.8200 
1751.184;0.0718;-0.0098;0.9941;0.0000;0.0000;0.0000;-2.6697;-4.7681;3.7793;34.8200 
1751.184;0.0718;-0.0098;0.9941;0.0000;0.0000;0.0000;-2.6642;-4.7681;3.7738;34.8200 
1751.184;0.0718;-0.0098;0.9941;0.0000;0.0000;0.0000;-2.6587;-4.7626;3.7738;34.8200 
1751.184;0.0718;-0.0098;0.9941;0.0000;0.0000;0.0000;-2.6477;-4.7626;3.7683;34.8100 
1751.184;0.0718;-0.0098;0.9941;0.0000;0.0000;0.0000;-2.6422;-4.7626;3.7628;34.8100 
1751.184;0.0718;-0.0098;0.9941;0.0000;0.0000;0.0000;-2.6367;-4.7571;3.7573;34.7900 
1751.184;0.0718;-0.0098;0.9941;0.0000;0.0000;0.0000;-2.6312;-4.7571;3.7518;34.7900 
1751.184;0.0718;-0.0098;0.9941;0.0000;0.0000;0.0000;-2.6257;-4.7571;3.7518;34.8400 
1751.184;0.0718;-0.0098;0.9941;0.0000;0.0000;0.0000;-2.6202;-4.7516;3.7463;34.8400 
1751.184;0.0718;-0.0098;0.9941;0.0000;0.0000;0.0000;-2.6147;-4.7516;3.7463;34.8100 
1751.184;0.0713;-0.0098;0.9941;0.0000;0.0000;0.0000;-2.6038;-4.7516;3.7408;34.8100 
1751.184;0.0713;-0.0098;0.9941;0.0000;0.0000;0.0000;-2.5983;-4.7461;3.7354;34.8400 
1751.184;0.0713;-0.0098;0.9941;0.0000;0.0000;0.0000;-2.5928;-4.7461;3.7354;34.8400 
1751.184;0.0713;-0.0098;0.9941;0.0000;0.0000;0.0000;-2.5873;-4.7461;3.7299;34.8300 
1751.184;0.0713;-0.0098;0.9941;0.0000;0.0000;0.0000;-2.5818;-4.7406;3.7244;34.8300 
1751.184;0.0713;-0.0098;0.9941;0.0000;0.0000;0.0000;-2.5763;-4.7406;3.7189;34.8300 
1751.184;0.0713;-0.0098;0.9941;0.0000;0.0000;0.0000;-2.5708;-4.7406;3.7134;34.8200 
1751.184;0.0713;-0.0098;0.9941;0.0000;0.0000;0.0000;-2.5653;-4.7351;3.7134;34.8200 
1751.184;0.0718;-0.0098;0.9941;0.0000;0.0000;0.0000;-2.5598;-4.7351;3.7079;34.7900 
1751.184;0.0718;-0.0098;0.9941;0.0000;0.0000;0.0000;-2.5488;-4.7351;3.7024;34.7900 
1751.184;0.0718;-0.0098;0.9941;0.0000;0.0000;0.0000;-2.5433;-4.7296;3.7024;34.8100 
1751.184;0.0718;-0.0098;0.9941;0.0000;0.0000;0.0000;-2.5378;-4.7296;3.6969;34.8100 
1751.184;0.0718;-0.0098;0.9941;0.0000;0.0000;0.0000;-2.5323;-4.7296;3.6969;34.7200 
1751.184;0.0718;-0.0098;0.9941;0.0000;0.0000;0.0000;-2.5269;-4.7241;3.6914;34.7200 
1751.184;0.0718;-0.0098;0.9941;0.0000;0.0000;0.0000;-2.5214;-4.7241;3.6914;34.8500 
1751.194;0.0718;-0.0098;0.9941;0.0000;0.0000;0.0000;-2.5159;-4.7241;3.6914;34.8500 
1751.194;0.0718;-0.0103;0.9941;0.0000;0.0000;0.0000;-2.5104;-4.7186;3.6859;34.8100 
1751.204;0.0718;-0.0103;0.9941;0.0000;0.0000;0.0000;-2.5049;-4.7186;3.6859;34.8100 
1751.204;0.0718;-0.0103;0.9941;0.0000;0.0000;0.0000;-2.4994;-4.7186;3.6804;34.8300 
1751.204;0.0718;-0.0103;0.9941;0.0000;0.0000;0.0000;-2.4939;-4.7186;3.6749;34.8300 
1751.204;0.0718;-0.0103;0.9941;0.0000;0.0000;0.0000;-2.4884;-4.7131;3.6694;34.7700 
1751.204;0.0718;-0.0103;0.9941;0.0000;0.0000;0.0000;-2.4829;-4.7131;3.6639;34.7700 
1751.204;0.0718;-0.0103;0.9941;0.0000;0.0000;0.0000;-2.4774;-4.7131;3.6584;34.7700 
1751.204;0.0718;-0.0103;0.9941;0.0000;0.0000;0.0000;-2.4719;-4.7076;3.6584;34.8600 
1751.204;0.0718;-0.0103;0.9941;0.0000;0.0000;0.0000;-2.4664;-4.7076;3.6475;34.8600 
1751.204;0.0718;-0.0103;0.9941;0.0000;0.0000;0.0000;-2.4554;-4.7076;3.6420;34.7700 
1751.204;0.0718;-0.0103;0.9941;0.0000;0.0000;0.0000;-2.4500;-4.7021;3.6365;34.7700 
1751.204;0.0718;-0.0103;0.9941;0.0000;0.0000;0.0000;-2.4445;-4.7021;3.6310;34.7800 
1751.204;0.0718;-0.0103;0.9941;0.0000;0.0000;0.0000;-2.4390;-4.7021;3.6310;34.7800 
1751.204;0.0718;-0.0103;0.9941;0.0000;0.0000;0.0000;-2.4335;-4.7021;3.6255;34.7800 
1751.204;0.0718;-0.0103;0.9941;0.0000;0.0000;0.0000;-2.4280;-4.6967;3.6200;34.7800 
1751.204;0.0718;-0.0103;0.9941;0.0000;0.0000;0.0000;-2.4225;-4.6967;3.6145;34.8100 
1751.204;0.0718;-0.0103;0.9946;0.0000;0.0000;0.0000;-2.4170;-4.6967;3.6090;34.8100 
1751.204;0.0718;-0.0103;0.9946;0.0000;0.0000;0.0000;-2.4115;-4.6912;3.6035;34.7800 
1751.204;0.0718;-0.0103;0.9946;0.0000;0.0000;0.0000;-2.4060;-4.6912;3.5980;34.7800 
1751.204;0.0718;-0.0103;0.9946;0.0000;0.0000;0.0000;-2.4005;-4.6912;3.5925;34.8100 
1751.204;0.0718;-0.0103;0.9946;0.0000;0.0000;0.0000;-2.3950;-4.6857;3.5870;34.8100 
1751.204;0.0718;-0.0103;0.9946;0.0000;0.0000;0.0000;-2.3895;-4.6857;3.5815;34.7800 
1751.204;0.0718;-0.0103;0.9946;0.0000;0.0000;0.0000;-2.3840;-4.6857;3.5760;34.7800 
1751.204;0.0718;-0.0103;0.9946;0.0000;0.0000;0.0000;-2.3785;-4.6857;3.5706;34.7800 
1751.204;0.0718;-0.0103;0.9946;0.0000;0.0000;0.0000;-2.3730;-4.6802;3.5651;34.8200 
1751.204;0.0718;-0.0103;0.9946;0.0000;0.0000;0.0000;-2.3676;-4.6802;3.5596;34.8200 
1751.204;0.0718;-0.0103;0.9946;0.0000;0.0000;0.0000;-2.3621;-4.6802;3.5596;34.8400 
1751.204;0.0718;-0.0103;0.9946;0.0000;0.0000;0.0000;-2.3566;-4.6747;3.5541;34.8400 
1751.204;0.0718;-0.0103;0.9946;0.0000;0.0000;0.0000;-2.3511;-4.6747;3.5541;34.8000 
1751.214;0.0718;-0.0103;0.9946;0.0000;0.0000;0.0000;-2.3456;-4.6747;3.5541;34.8000 
1751.214;0.0718;-0.0103;0.9946;0.0000;0.0000;0.0000;-2.3456;-4.6747;3.5486;34.8400 
1751.214;0.0718;-0.0103;0.9946;0.0000;0.0000;0.0000;-2.3401;-4.6692;3.5486;34.8400 
1751.244;0.0718;-0.0103;0.9951;0.0000;0.0000;0.0000;-2.3346;-4.6692;3.5431;34.8300 
1751.244;0.0718;-0.0103;0.9951;0.0000;0.0000;0.0000;-2.3291;-4.6692;3.5431;34.8300 
1751.244;0.0718;-0.0103;0.9951;0.0000;0.0000;0.0000;-2.3236;-4.6637;3.5376;34.8100 
1751.244;0.0718;-0.0103;0.9951;0.0000;0.0000;0.0000;-2.3181;-4.6637;3.5376;34.8100 
1751.244;0.0718;-0.0103;0.9951;0.0000;0.0000;0.0000;-2.3126;-4.6637;3.5376;34.7800 
1751.244;0.0718;-0.0103;0.9951;0.0000;0.0000;0.0000;-2.3071;-4.6637;3.5376;34.7800 
1751.254;0.0718;-0.0103;0.9951;0.0000;0.0000;0.0000;-2.3016;-4.6582;3.5376;34.8100 
1751.254;0.0718;-0.0103;0.9951;0.0000;0.0000;0.0000;-2.2961;-4.6582;3.5376;34.8100 
1751.274;0.0718;-0.0103;0.9951;0.0000;0.0000;0.0000;-2.2906;-4.6582;3.5376;34.8100 
1751.274;0.0718;-0.0103;0.9951;0.0000;0.0000;0.0000;-2.2852;-4.6527;3.5376;34.8400 
1751.294;0.0718;-0.0103;0.9951;0.0000;0.0000;0.0000;-2.2797;-4.6527;3.5376;34.8400 
1751.294;0.0718;-0.0103;0.9951;0.0000;0.0000;0.0000;-2.2742;-4.6527;3.5376;34.8500 
1751.294;0.0718;-0.0103;0.9951;0.0000;0.0000;0.0000;-2.2687;-4.6527;3.5376;34.8500 
1751.294;0.0718;-0.0103;0.9951;0.0000;0.0000;0.0000;-2.2632;-4.6472;3.5376;34.7900 
1751.294;0.0718;-0.0103;0.9951;0.0000;0.0000;0.0000;-2.2577;-4.6472;3.5376;34.7900 
1751.294;0.0718;-0.0103;0.9951;0.0000;0.0000;0.0000;-2.2577;-4.6472;3.5321;34.7800 
1751.294;0.0718;-0.0103;0.9951;0.0000;0.0000;0.0000;-2.2522;-4.6417;3.5321;34.7800 
1751.294;0.0718;-0.0103;0.9951;0.0000;0.0000;0.0000;-2.2467;-4.6417;3.5321;34.8000 
1751.304;0.0718;-0.0103;0.9951;0.0000;0.0000;0.0000;-2.2412;-4.6417;3.5266;34.8000 
1751.304;0.0718;-0.0103;0.9951;0.0000;0.0000;0.0000;-2.2357;-4.6417;3.5266;34.8100 
1751.324;0.0718;-0.0103;0.9951;0.0000;0.0000;0.0000;-2.2302;-4.6362;3.5266;34.8100 
1751.324;0.0718;-0.0103;0.9951;0.0000;0.0000;0.0000;-2.2247;-4.6362;3.5266;34.7900 
1751.384;0.0718;-0.0103;0.9951;0.0000;0.0000;0.0000;-2.2192;-4.6362;3.5266;34.7900 
1751.384;0.0718;-0.0103;0.9951;0.0000;0.0000;0.0000;-2.2137;-4.6307;3.5266;34.7900 
1751.384;0.0718;-0.0103;0.9946;0.0000;0.0000;0.0000;-2.2083;-4.6307;3.5266;34.8100 
1751.384;0.0718;-0.0103;0.9946;0.0000;0.0000;0.0000;-2.2083;-4.6307;3.5266;34.8100 
1751.444;0.0718;-0.0103;0.9946;0.0000;0.0000;0.0000;-2.2028;-4.6307;3.5266;34.8100 
1751.444;0.0718;-0.0103;0.9946;0.0000;0.0000;0.0000;-2.1973;-4.6252;3.5211;34.8100 
1751.444;0.0718;-0.0103;0.9946;0.0000;0.0000;0.0000;-2.1918;-4.6252;3.5211;34.8000 
1751.444;0.0718;-0.0103;0.9946;0.0000;0.0000;0.0000;-2.1863;-4.6252;3.5211;34.8000 
1751.444;0.0718;-0.0103;0.9946;0.0000;0.0000;0.0000;-2.1808;-4.6252;3.5211;34.8200 
1751.444;0.0718;-0.0103;0.9946;0.0000;0.0000;0.0000;-2.1753;-4.6198;3.5156;34.8200 
1751.444;0.0718;-0.0103;0.9946;0.0000;0.0000;0.0000;-2.1698;-4.6198;3.5156;34.7500 
1751.484;0.0718;-0.0103;0.9946;0.0000;0.0000;0.0000;-2.1643;-4.6198;3.5101;34.7500 
1751.484;0.0718;-0.0103;0.9946;0.0000;0.0000;0.0000;-2.1643;-4.6198;3.5046;34.8000 
1751.484;0.0718;-0.0103;0.9946;0.0000;0.0000;0.0000;-2.1588;-4.6143;3.5046;34.8000 
1751.484;0.0718;-0.0103;0.9946;0.0000;0.0000;0.0000;-2.1533;-4.6143;3.5046;34.8500 
1751.484;0.0718;-0.0103;0.9946;0.0000;0.0000;0.0000;-2.1478;-4.6143;3.5046;34.8500 
1751.484;0.0718;-0.0103;0.9946;0.0000;0.0000;0.0000;-2.1423;-4.6088;3.5046;34.7500 
1751.484;0.0718;-0.0103;0.9946;0.0000;0.0000;0.0000;-2.1368;-4.6088;3.5046;34.7500 
1751.484;0.0718;-0.0103;0.9946;0.0000;0.0000;0.0000;-2.1313;-4.6088;3.5046;34.7500 
1751.484;0.0718;-0.0103;0.9946;0.0000;0.0000;0.0000;-2.1313;-4.6088;3.5046;34.7900 
1751.484;0.0718;-0.0103;0.9946;0.0000;0.0000;0.0000;-2.1259;-4.6033;3.5046;34.7900 
1751.494;0.0718;-0.0103;0.9946;0.0000;0.0000;0.0000;-2.1204;-4.6033;3.5046;34.8300 
1751.494;0.0718;-0.0103;0.9946;0.0000;0.0000;0.0000;-2.1149;-4.6033;3.5046;34.8300 
1751.494;0.0718;-0.0103;0.9946;0.0000;0.0000;0.0000;-2.1094;-4.6033;3.5046;34.8000 
1751.494;0.0718;-0.0103;0.9946;0.0000;0.0000;0.0000;-2.1039;-4.5978;3.4991;34.8000 
1751.494;0.0718;-0.0103;0.9946;0.0000;0.0000;0.0000;-2.1039;-4.5978;3.4991;34.8500 
1751.494;0.0718;-0.0103;0.9946;0.0000;0.0000;0.0000;-2.0984;-4.5978;3.4991;34.8500 
1751.494;0.0718;-0.0103;0.9946;0.0000;0.0000;0.0000;-2.0929;-4.5978;3.4937;34.8100 
1751.494;0.0718;-0.0103;0.9946;0.0000;0.0000;0.0000;-2.0874;-4.5923;3.4937;34.8100 
1751.494;0.0718;-0.0103;0.9946;0.0000;0.0000;0.0000;-2.0819;-4.5923;3.4882;34.7900 
1751.494;0.0718;-0.0103;0.9946;0.0000;0.0000;0.0000;-2.0764;-4.5923;3.4882;34.7900 
1751.514;0.0718;-0.0103;0.9946;0.0000;0.0000;0.0000;-2.0764;-4.5923;3.4882;34.8300 
1751.514;0.0718;-0.0103;0.9946;0.0000;0.0000;0.0000;-2.0709;-4.5868;3.4827;34.8300 
1751.514;0.0718;-0.0103;0.9946;0.0000;0.0000;0.0000;-2.0654;-4.5868;3.4827;34.7400 
1751.514;0.0718;-0.0103;0.9946;0.0000;0.0000;0.0000;-2.0599;-4.5868;3.4772;34.7400 
1751.534;0.0718;-0.0103;0.9946;0.0000;0.0000;0.0000;-2.0544;-4.5868;3.4772;34.7400 
1751.534;0.0718;-0.0103;0.9946;0.0000;0.0000;0.0000;-2.0544;-4.5813;3.4717;34.8300 
1751.544;0.0718;-0.0103;0.9946;0.0000;0.0000;0.0000;-2.0490;-4.5813;3.4717;34.8300 
1751.544;0.0718;-0.0103;0.9946;0.0000;0.0000;0.0000;-2.0435;-4.5813;3.4717;34.8200 
1751.554;0.0718;-0.0103;0.9946;0.0000;0.0000;0.0000;-2.0380;-4.5813;3.4717;34.8200 
1751.554;0.0718;-0.0103;0.9946;0.0000;0.0000;0.0000;-2.0325;-4.5758;3.4662;34.8200 
1751.564;0.0718;-0.0103;0.9946;0.0000;0.0000;0.0000;-2.0325;-4.5758;3.4662;34.8200 
1751.564;0.0723;-0.0103;0.9946;0.0000;0.0000;0.0000;-2.0270;-4.5758;3.4662;34.8200 
1751.564;0.0723;-0.0103;0.9946;0.0000;0.0000;0.0000;-2.0215;-4.5758;3.4662;34.8200 
1751.564;0.0723;-0.0103;0.9946;0.0000;0.0000;0.0000;-2.0160;-4.5758;3.4662;34.8100 
1751.564;0.0723;-0.0103;0.9946;0.0000;0.0000;0.0000;-2.0105;-4.5703;3.4662;34.8100 
1751.564;0.0723;-0.0103;0.9946;0.0000;0.0000;0.0000;-2.0105;-4.5703;3.4662;34.8100 
1751.564;0.0723;-0.0103;0.9946;0.0000;0.0000;0.0000;-2.0050;-4.5703;3.4607;34.8100 
1751.634;0.0723;-0.0103;0.9946;0.0000;0.0000;0.0000;-1.9995;-4.5703;3.4607;34.8400 
1751.634;0.0723;-0.0103;0.9946;0.0000;0.0000;0.0000;-1.9940;-4.5648;3.4607;34.8400 
1751.634;0.0723;-0.0103;0.9946;0.0000;0.0000;0.0000;-1.9940;-4.5648;3.4552;34.9200 
1751.634;0.0723;-0.0103;0.9946;0.0000;0.0000;0.0000;-1.9885;-4.5648;3.4552;34.9200 
1751.634;0.0723;-0.0103;0.9946;0.0000;0.0000;0.0000;-1.9830;-4.5648;3.4497;34.9200 
1751.634;0.0723;-0.0103;0.9946;0.0000;0.0000;0.0000;-1.9775;-4.5648;3.4442;34.8500 
1751.654;0.0723;-0.0103;0.9946;0.0000;0.0000;0.0000;-1.9720;-4.5593;3.4387;34.8500 
1751.654;0.0723;-0.0103;0.9946;0.0000;0.0000;0.0000;-1.9720;-4.5593;3.4387;34.8000 
1751.654;0.0723;-0.0103;0.9946;0.0000;0.0000;0.0000;-1.9666;-4.5593;3.4332;34.8000 
1751.654;0.0723;-0.0103;0.9946;0.0000;0.0000;0.0000;-1.9611;-4.5593;3.4332;34.8100 
1751.654;0.0723;-0.0103;0.9946;0.0000;0.0000;0.0000;-1.9556;-4.5593;3.4277;34.8100 
1751.654;0.0723;-0.0103;0.9946;0.0000;0.0000;0.0000;-1.9556;-4.5538;3.4222;34.8300 
1751.654;0.0723;-0.0103;0.9946;0.0000;0.0000;0.0000;-1.9501;-4.5538;3.4222;34.8300 
1751.654;0.0723;-0.0103;0.9946;0.0000;0.0000;0.0000;-1.9446;-4.5538;3.4167;34.8400 
1751.654;0.0723;-0.0103;0.9946;0.0000;0.0000;0.0000;-1.9391;-4.5538;3.4113;34.8400 
1751.654;0.0723;-0.0103;0.9946;0.0000;0.0000;0.0000;-1.9391;-4.5483;3.4058;34.7900 
1751.674;0.0723;-0.0103;0.9946;0.0000;0.0000;0.0000;-1.9336;-4.5483;3.4003;34.7900 
1751.674;0.0723;-0.0098;0.9941;0.0000;0.0000;0.0000;-1.9281;-4.5483;3.3948;34.7800 
1751.674;0.0723;-0.0098;0.9941;0.0000;0.0000;0.0000;-1.9226;-4.5483;3.3893;34.7800 
1751.674;0.0723;-0.0098;0.9941;0.0000;0.0000;0.0000;-1.9226;-4.5483;3.3893;34.7800 
1751.674;0.0723;-0.0098;0.9941;0.0000;0.0000;0.0000;-1.9171;-4.5428;3.3838;34.8100 
1751.674;0.0723;-0.0098;0.9941;0.0000;0.0000;0.0000;-1.9116;-4.5428;3.3783;34.8100 
1751.674;0.0723;-0.0098;0.9941;0.0000;0.0000;0.0000;-1.9061;-4.5428;3.3783;34.7700 
1751.674;0.0723;-0.0098;0.9941;0.0000;0.0000;0.0000;-1.9061;-4.5428;3.3728;34.7700 
1751.694;0.0723;-0.0098;0.9941;0.0000;0.0000;0.0000;-1.9006;-4.5428;3.3728;34.7800 
1751.694;0.0723;-0.0098;0.9941;0.0000;0.0000;0.0000;-1.8951;-4.5374;3.3673;34.7800 
1751.694;0.0723;-0.0098;0.9941;0.0000;0.0000;0.0000;-1.8951;-4.5374;3.3673;34.7800 
1751.714;0.0723;-0.0098;0.9941;0.0000;0.0000;0.0000;-1.8896;-4.5374;3.3673;34.7800 
1751.714;0.0723;-0.0098;0.9941;0.0000;0.0000;0.0000;-1.8842;-4.5374;3.3618;34.8100 
1751.714;0.0723;-0.0098;0.9941;0.0000;0.0000;0.0000;-1.8787;-4.5374;3.3618;34.8100 
1751.714;0.0723;-0.0098;0.9941;0.0000;0.0000;0.0000;-1.8787;-4.5319;3.3563;34.7400 
1751.724;0.0723;-0.0098;0.9941;0.0000;0.0000;0.0000;-1.8732;-4.5319;3.3508;34.7400 
1751.724;0.0723;-0.0098;0.9941;0.0000;0.0000;0.0000;-1.8677;-4.5319;3.3508;34.7700 
1751.744;0.0723;-0.0098;0.9941;0.0000;0.0000;0.0000;-1.8622;-4.5319;3.3508;34.7700 
1751.744;0.0723;-0.0098;0.9941;0.0000;0.0000;0.0000;-1.8622;-4.5319;3.3508;34.8300 
1751.764;0.0723;-0.0098;0.9941;0.0000;0.0000;0.0000;-1.8567;-4.5264;3.3508;34.8300 
1751.764;0.0723;-0.0098;0.9941;0.0000;0.0000;0.0000;-1.8512;-4.5264;3.3508;34.8300 
1751.774;0.0723;-0.0098;0.9941;0.0000;0.0000;0.0000;-1.8512;-4.5264;3.3508;34.7800 
1751.774;0.0723;-0.0098;0.9941;0.0000;0.0000;0.0000;-1.8457;-4.5264;3.3508;34.7800 
1751.774;0.0723;-0.0098;0.9941;0.0000;0.0000;0.0000;-1.8402;-4.5264;3.3453;34.7800 
1751.774;0.0723;-0.0098;0.9941;0.0000;0.0000;0.0000;-1.8347;-4.5209;3.3453;34.7800 
1751.784;0.0723;-0.0098;0.9941;0.0000;0.0000;0.0000;-1.8347;-4.5209;3.3453;34.7900 
1751.784;0.0723;-0.0098;0.9941;0.0000;0.0000;0.0000;-1.8292;-4.5209;3.3453;34.7900 
1751.804;0.0723;-0.0098;0.9941;0.0000;0.0000;0.0000;-1.8237;-4.5209;3.3453;34.7700 
1751.804;0.0723;-0.0098;0.9941;0.0000;0.0000;0.0000;-1.8237;-4.5209;3.3453;34.7700 
1751.824;0.0723;-0.0098;0.9941;0.0000;0.0000;0.0000;-1.8182;-4.5154;3.3398;34.8100 
1751.824;0.0723;-0.0098;0.9941;0.0000;0.0000;0.0000;-1.8127;-4.5154;3.3398;34.8100 
1751.824;0.0723;-0.0098;0.9941;0.0000;0.0000;0.0000;-1.8127;-4.5154;3.3398;34.7700 
1751.824;0.0723;-0.0098;0.9941;0.0000;0.0000;0.0000;-1.8073;-4.5154;3.3398;34.7700 
1751.824;0.0723;-0.0098;0.9941;0.0000;0.0000;0.0000;-1.8018;-4.5154;3.3344;34.8100 
1751.824;0.0723;-0.0098;0.9941;0.0000;0.0000;0.0000;-1.8018;-4.5154;3.3344;34.8100 
1751.834;0.0723;-0.0098;0.9941;0.0000;0.0000;0.0000;-1.7963;-4.5099;3.3344;34.8000 
1751.834;0.0723;-0.0098;0.9941;0.0000;0.0000;0.0000;-1.7908;-4.5099;3.3289;34.8000 
1751.854;0.0723;-0.0098;0.9941;0.0000;0.0000;0.0000;-1.7908;-4.5099;3.3289;34.8000 
1751.854;0.0723;-0.0098;0.9941;0.0000;0.0000;0.0000;-1.7853;-4.5099;3.3289;34.7700 
1751.854;0.0723;-0.0098;0.9941;0.0000;0.0000;0.0000;-1.7798;-4.5099;3.3289;34.7700 
1751.854;0.0723;-0.0098;0.9941;0.0000;0.0000;0.0000;-1.7743;-4.5044;3.3289;34.8000 
1751.884;0.0723;-0.0098;0.9941;0.0000;0.0000;0.0000;-1.7743;-4.5044;3.3344;34.8000 
1751.894;0.0723;-0.0098;0.9941;0.0000;0.0000;0.0000;-1.7688;-4.5044;3.3344;34.8500 
1751.894;0.0723;-0.0098;0.9941;0.0000;0.0000;0.0000;-1.7633;-4.5044;3.3344;34.8500 
1751.904;0.0723;-0.0098;0.9941;0.0000;0.0000;0.0000;-1.7633;-4.5044;3.3344;34.7700 
1751.904;0.0723;-0.0098;0.9941;0.0000;0.0000;0.0000;-1.7578;-4.4989;3.3344;34.7700 
1751.904;0.0723;-0.0098;0.9941;0.0000;0.0000;0.0000;-1.7578;-4.4989;3.3344;34.7600 
1751.904;0.0723;-0.0098;0.9941;0.0000;0.0000;0.0000;-1.7523;-4.4989;3.3344;34.7600 
1751.914;0.0723;-0.0098;0.9941;0.0000;0.0000;0.0000;-1.7468;-4.4989;3.3344;34.8400 
1751.914;0.0718;-0.0098;0.9946;0.0000;0.0000;0.0000;-1.7468;-4.4989;3.3344;34.8400 
1751.934;0.0718;-0.0098;0.9946;0.0000;0.0000;0.0000;-1.7413;-4.4934;3.3289;34.8100 
1751.934;0.0718;-0.0098;0.9946;0.0000;0.0000;0.0000;-1.7358;-4.4934;3.3289;34.8100 
1751.934;0.0718;-0.0098;0.9946;0.0000;0.0000;0.0000;-1.7358;-4.4934;3.3289;34.7500 
1751.934;0.0718;-0.0098;0.9946;0.0000;0.0000;0.0000;-1.7303;-4.4934;3.3289;34.7500 
1751.934;0.0718;-0.0098;0.9946;0.0000;0.0000;0.0000;-1.7249;-4.4934;3.3289;34.7500 
1751.934;0.0718;-0.0098;0.9946;0.0000;0.0000;0.0000;-1.7249;-4.4934;3.3289;34.8100 
1751.934;0.0718;-0.0098;0.9946;0.0000;0.0000;0.0000;-1.7194;-4.4879;3.3289;34.8100 
1751.934;0.0718;-0.0098;0.9946;0.0000;0.0000;0.0000;-1.7139;-4.4879;3.3289;34.7600 
1751.934;0.0718;-0.0098;0.9946;0.0000;0.0000;0.0000;-1.7139;-4.4879;3.3234;34.7600 
1751.934;0.0718;-0.0098;0.9946;0.0000;0.0000;0.0000;-1.7084;-4.4879;3.3289;34.8400 
1751.954;0.0718;-0.0098;0.9946;0.0000;0.0000;0.0000;-1.7084;-4.4879;3.3289;34.8400 
1751.954;0.0718;-0.0098;0.9946;0.0000;0.0000;0.0000;-1.7029;-4.4824;3.3234;34.7800 
1751.964;0.0718;-0.0098;0.9946;0.0000;0.0000;0.0000;-1.6974;-4.4824;3.3234;34.7800 
1751.964;0.0718;-0.0098;0.9946;0.0000;0.0000;0.0000;-1.6974;-4.4824;3.3234;34.8100 
1751.984;0.0718;-0.0098;0.9946;0.0000;0.0000;0.0000;-1.6919;-4.4824;3.3234;34.8100 
1751.984;0.0723;-0.0098;0.9946;0.0000;0.0000;0.0000;-1.6864;-4.4824;3.3234;34.8000 
1751.994;0.0723;-0.0098;0.9946;0.0000;0.0000;0.0000;-1.6864;-4.4769;3.3234;34.8000 
1751.994;0.0723;-0.0098;0.9946;0.0000;0.0000;0.0000;-1.6809;-4.4769;3.3234;34.8400 
1752.014;0.0723;-0.0098;0.9946;0.0000;0.0000;0.0000;-1.6809;-4.4769;3.3234;34.8400 
1752.014;0.0723;-0.0098;0.9946;0.0000;0.0000;0.0000;-1.6754;-4.4769;3.3234;34.8400 
1752.014;0.0723;-0.0098;0.9946;0.0000;0.0000;0.0000;-1.6699;-4.4769;3.3234;34.8100 
1752.014;0.0723;-0.0098;0.9946;0.0000;0.0000;0.0000;-1.6699;-4.4769;3.3234;34.8100 
1752.014;0.0723;-0.0098;0.9946;0.0000;0.0000;0.0000;-1.6644;-4.4714;3.3234;34.8100 
1752.044;0.0723;-0.0098;0.9946;0.0000;0.0000;0.0000;-1.6589;-4.4714;3.3179;34.8100 
1752.044;0.0723;-0.0098;0.9946;0.0000;0.0000;0.0000;-1.6589;-4.4714;3.3124;34.8400 
1752.044;0.0723;-0.0098;0.9946;0.0000;0.0000;0.0000;-1.6534;-4.4714;3.3069;34.8400 
1752.044;0.0723;-0.0098;0.9946;0.0000;0.0000;0.0000;-1.6534;-4.4714;3.3069;34.8500 
1752.044;0.0723;-0.0098;0.9946;0.0000;0.0000;0.0000;-1.6479;-4.4714;3.3014;34.8500 
1752.044;0.0723;-0.0098;0.9946;0.0000;0.0000;0.0000;-1.6425;-4.4659;3.2959;34.8100 
1752.054;0.0723;-0.0098;0.9946;0.0000;0.0000;0.0000;-1.6425;-4.4659;3.2904;34.8100 
1752.054;0.0723;-0.0098;0.9946;0.0000;0.0000;0.0000;-1.6370;-4.4659;3.2904;34.7900 
1752.074;0.0723;-0.0098;0.9946;0.0000;0.0000;0.0000;-1.6370;-4.4659;3.2849;34.7900 
1752.074;0.0723;-0.0098;0.9946;0.0000;0.0000;0.0000;-1.6315;-4.4659;3.2794;34.7900 
1752.074;0.0723;-0.0098;0.9946;0.0000;0.0000;0.0000;-1.6260;-4.4659;3.2794;34.7900 
1752.074;0.0723;-0.0098;0.9946;0.0000;0.0000;0.0000;-1.6260;-4.4604;3.2739;34.8700 
1752.094;0.0723;-0.0098;0.9946;0.0000;0.0000;0.0000;-1.6205;-4.4604;3.2684;34.8700 
1752.094;0.0723;-0.0098;0.9946;0.0000;0.0000;0.0000;-1.6205;-4.4604;3.2684;34.8700 
1752.094;0.0723;-0.0098;0.9946;0.0000;0.0000;0.0000;-1.6150;-4.4604;3.2629;34.7800 
1752.094;0.0723;-0.0098;0.9946;0.0000;0.0000;0.0000;-1.6150;-4.4604;3.2574;34.7800 
1752.094;0.0718;-0.0103;0.9946;0.0000;0.0000;0.0000;-1.6095;-4.4604;3.2520;34.8300 
1752.094;0.0718;-0.0103;0.9946;0.0000;0.0000;0.0000;-1.6040;-4.4550;3.2465;34.8300 
1752.114;0.0718;-0.0103;0.9946;0.0000;0.0000;0.0000;-1.6040;-4.4550;3.2410;34.8400 
1752.114;0.0718;-0.0103;0.9946;0.0000;0.0000;0.0000;-1.5985;-4.4550;3.2355;34.8400 
1752.124;0.0718;-0.0103;0.9946;0.0000;0.0000;0.0000;-1.5985;-4.4550;3.2300;34.7700 
1752.124;0.0718;-0.0103;0.9946;0.0000;0.0000;0.0000;-1.5930;-4.4550;3.2245;34.7700 
1752.134;0.0718;-0.0103;0.9946;0.0000;0.0000;0.0000;-1.5930;-4.4550;3.2190;34.9200 
1752.134;0.0718;-0.0103;0.9946;0.0000;0.0000;0.0000;-1.5875;-4.4495;3.2135;34.9200 
1752.143;0.0718;-0.0103;0.9946;0.0000;0.0000;0.0000;-1.5875;-4.4495;3.2135;34.8800 
1752.143;0.0718;-0.0103;0.9946;0.0000;0.0000;0.0000;-1.5820;-4.4495;3.2080;34.8800 
1752.243;0.0718;-0.0103;0.9946;0.0000;0.0000;0.0000;-1.5765;-4.4495;3.2025;34.7800 
1752.243;0.0718;-0.0103;0.9946;0.0000;0.0000;0.0000;-1.5765;-4.4495;3.2025;34.7800 
1752.264;0.0718;-0.0103;0.9946;0.0000;0.0000;0.0000;-1.5710;-4.4495;3.1970;34.7900 
1752.273;0.0718;-0.0103;0.9946;0.0000;0.0000;0.0000;-1.5710;-4.4440;3.1915;34.7900 
1752.283;0.0718;-0.0103;0.9946;0.0000;0.0000;0.0000;-1.5656;-4.4440;3.1915;34.7900 
1752.283;0.0718;-0.0103;0.9946;0.0000;0.0000;0.0000;-1.5656;-4.4440;3.1915;34.8500 
1752.283;0.0718;-0.0107;0.9946;0.0000;0.0000;0.0000;-1.5601;-4.4440;3.1860;34.8500 
1752.283;0.0718;-0.0107;0.9946;0.0000;0.0000;0.0000;-1.5601;-4.4440;3.1860;34.8500 
1752.283;0.0718;-0.0107;0.9946;0.0000;0.0000;0.0000;-1.5546;-4.4440;3.1805;34.8500 
1752.283;0.0718;-0.0107;0.9946;0.0000;0.0000;0.0000;-1.5546;-4.4385;3.1805;34.7700 
1752.283;0.0718;-0.0107;0.9946;0.0000;0.0000;0.0000;-1.5491;-4.4385;3.1750;34.7700 
1752.283;0.0718;-0.0107;0.9946;0.0000;0.0000;0.0000;-1.5491;-4.4385;3.1750;34.8600 
1752.283;0.0718;-0.0107;0.9946;0.0000;0.0000;0.0000;-1.5436;-4.4385;3.1750;34.8600 
1752.303;0.0718;-0.0107;0.9946;0.0000;0.0000;0.0000;-1.5436;-4.4385;3.1696;34.8400 
1752.303;0.0718;-0.0107;0.9946;0.0000;0.0000;0.0000;-1.5381;-4.4385;3.1696;34.8400 
1752.303;0.0718;-0.0107;0.9946;0.0000;0.0000;0.0000;-1.5381;-4.4330;3.1696;34.7800 
1752.303;0.0718;-0.0107;0.9946;0.0000;0.0000;0.0000;-1.5326;-4.4330;3.1641;34.7800 
1752.323;0.0718;-0.0107;0.9946;0.0000;0.0000;0.0000;-1.5326;-4.4330;3.1641;34.8100 
1752.323;0.0718;-0.0107;0.9946;0.0000;0.0000;0.0000;-1.5271;-4.4330;3.1586;34.8100 
1752.323;0.0718;-0.0107;0.9946;0.0000;0.0000;0.0000;-1.5271;-4.4330;3.1586;34.8700 
1752.323;0.0718;-0.0107;0.9946;0.0000;0.0000;0.0000;-1.5216;-4.4330;3.1531;34.8700 
1752.323;0.0718;-0.0107;0.9946;0.0000;0.0000;0.0000;-1.5216;-4.4275;3.1531;34.8700 
1752.323;0.0718;-0.0107;0.9946;0.0000;0.0000;0.0000;-1.5161;-4.4275;3.1476;34.7700 
1752.343;0.0718;-0.0107;0.9946;0.0000;0.0000;0.0000;-1.5161;-4.4275;3.1476;34.7700 
1752.343;0.0718;-0.0107;0.9946;0.0000;0.0000;0.0000;-1.5106;-4.4275;3.1421;34.8000 
1752.363;0.0718;-0.0107;0.9946;0.0000;0.0000;0.0000;-1.5106;-4.4275;3.1421;34.8000 
1752.363;0.0718;-0.0107;0.9946;0.0000;0.0000;0.0000;-1.5051;-4.4275;3.1366;34.7700 
1752.363;0.0718;-0.0107;0.9946;0.0000;0.0000;0.0000;-1.5051;-4.4275;3.1311;34.7700 
1752.363;0.0718;-0.0107;0.9946;0.0000;0.0000;0.0000;-1.4996;-4.4220;3.1256;34.8400 
1752.363;0.0718;-0.0107;0.9946;0.0000;0.0000;0.0000;-1.4996;-4.4220;3.1201;34.8400 
1752.363;0.0718;-0.0107;0.9946;0.0000;0.0000;0.0000;-1.4941;-4.4220;3.1146;34.7700 
1752.383;0.0718;-0.0107;0.9946;0.0000;0.0000;0.0000;-1.4941;-4.4220;3.1091;34.7700 
1752.383;0.0718;-0.0107;0.9946;0.0000;0.0000;0.0000;-1.4886;-4.4220;3.1036;34.8200 
1752.383;0.0718;-0.0107;0.9946;0.0000;0.0000;0.0000;-1.4886;-4.4220;3.0981;34.8200 
1752.383;0.0718;-0.0107;0.9946;0.0000;0.0000;0.0000;-1.4832;-4.4165;3.0927;34.8500 
1752.383;0.0718;-0.0107;0.9946;0.0000;0.0000;0.0000;-1.4832;-4.4165;3.0872;34.8500 
1752.383;0.0718;-0.0107;0.9946;0.0000;0.0000;0.0000;-1.4777;-4.4165;3.0817;34.8500 
1752.403;0.0718;-0.0107;0.9946;0.0000;0.0000;0.0000;-1.4777;-4.4165;3.0762;34.8400 
1752.403;0.0718;-0.0103;0.9951;0.0000;0.0000;0.0000;-1.4722;-4.4165;3.0707;34.8400 
1752.413;0.0718;-0.0103;0.9951;0.0000;0.0000;0.0000;-1.4722;-4.4165;3.0707;34.8000 
1752.433;0.0718;-0.0103;0.9951;0.0000;0.0000;0.0000;-1.4667;-4.4165;3.0652;34.8000 
1752.433;0.0718;-0.0103;0.9951;0.0000;0.0000;0.0000;-1.4667;-4.4110;3.0652;34.8100 
1752.433;0.0718;-0.0103;0.9951;0.0000;0.0000;0.0000;-1.4612;-4.4110;3.0597;34.8100 
1752.443;0.0718;-0.0103;0.9951;0.0000;0.0000;0.0000;-1.4612;-4.4110;3.0542;34.8400 
1752.483;0.0718;-0.0103;0.9951;0.0000;0.0000;0.0000;-1.4557;-4.4110;3.0542;34.8400 
1752.483;0.0718;-0.0103;0.9951;0.0000;0.0000;0.0000;-1.4557;-4.4110;3.0542;34.8100 
1752.503;0.0718;-0.0103;0.9951;0.0000;0.0000;0.0000;-1.4502;-4.4110;3.0487;34.8100 
1752.503;0.0718;-0.0103;0.9951;0.0000;0.0000;0.0000;-1.4502;-4.4055;3.0487;34.8000 
1752.503;0.0718;-0.0103;0.9951;0.0000;0.0000;0.0000;-1.4447;-4.4055;3.0487;34.8000 
1752.503;0.0718;-0.0103;0.9951;0.0000;0.0000;0.0000;-1.4447;-4.4055;3.0432;34.8000 
1752.503;0.0718;-0.0103;0.9951;0.0000;0.0000;0.0000;-1.4447;-4.4055;3.0432;34.8000 
1752.503;0.0718;-0.0103;0.9951;0.0000;0.0000;0.0000;-1.4392;-4.4055;3.0432;34.7900 
1752.513;0.0718;-0.0103;0.9951;0.0000;0.0000;0.0000;-1.4392;-4.4055;3.0377;34.7900 
1752.513;0.0718;-0.0103;0.9951;0.0000;0.0000;0.0000;-1.4337;-4.4055;3.0377;34.7900 
1752.533;0.0718;-0.0103;0.9951;0.0000;0.0000;0.0000;-1.4337;-4.4000;3.0322;34.8400 
1752.533;0.0718;-0.0103;0.9951;0.0000;0.0000;0.0000;-1.4282;-4.4000;3.0322;34.8400 
1752.533;0.0718;-0.0103;0.9951;0.0000;0.0000;0.0000;-1.4282;-4.4000;3.0267;34.7600 
1752.533;0.0718;-0.0103;0.9951;0.0000;0.0000;0.0000;-1.4227;-4.4000;3.0267;34.7600 
1752.533;0.0718;-0.0103;0.9951;0.0000;0.0000;0.0000;-1.4227;-4.4000;3.0212;34.8000 
1752.533;0.0718;-0.0103;0.9951;0.0000;0.0000;0.0000;-1.4172;-4.4000;3.0212;34.8000 
1752.533;0.0718;-0.0103;0.9951;0.0000;0.0000;0.0000;-1.4172;-4.4000;3.0157;34.8400 
1752.533;0.0718;-0.0103;0.9951;0.0000;0.0000;0.0000;-1.4117;-4.3945;3.0157;34.8400 
1752.533;0.0718;-0.0103;0.9946;0.0000;0.0000;0.0000;-1.4117;-4.3945;3.0157;34.7600 
1752.533;0.0718;-0.0103;0.9946;0.0000;0.0000;0.0000;-1.4117;-4.3945;3.0157;34.7600 
1752.533;0.0718;-0.0103;0.9946;0.0000;0.0000;0.0000;-1.4063;-4.3945;3.0103;34.8200 
1752.533;0.0718;-0.0103;0.9946;0.0000;0.0000;0.0000;-1.4063;-4.3945;3.0103;34.8200 
1752.553;0.0718;-0.0103;0.9946;0.0000;0.0000;0.0000;-1.4008;-4.3945;3.0103;34.7900 
1752.553;0.0718;-0.0103;0.9946;0.0000;0.0000;0.0000;-1.4008;-4.3945;3.0103;34.7900 
1752.553;0.0718;-0.0103;0.9946;0.0000;0.0000;0.0000;-1.3953;-4.3890;3.0048;34.8100 
1752.553;0.0718;-0.0103;0.9946;0.0000;0.0000;0.0000;-1.3953;-4.3890;3.0048;34.8100 
1752.553;0.0718;-0.0103;0.9946;0.0000;0.0000;0.0000;-1.3898;-4.3890;3.0048;34.8100 
1752.553;0.0718;-0.0103;0.9946;0.0000;0.0000;0.0000;-1.3898;-4.3890;3.0048;34.8200 
1752.553;0.0718;-0.0103;0.9946;0.0000;0.0000;0.0000;-1.3843;-4.3890;3.0048;34.8200 
1752.553;0.0718;-0.0103;0.9946;0.0000;0.0000;0.0000;-1.3843;-4.3890;2.9993;34.7900 
1752.553;0.0718;-0.0103;0.9946;0.0000;0.0000;0.0000;-1.3843;-4.3890;2.9993;34.7900 
1752.553;0.0718;-0.0103;0.9946;0.0000;0.0000;0.0000;-1.3788;-4.3835;2.9938;34.8000 
1752.553;0.0718;-0.0103;0.9946;0.0000;0.0000;0.0000;-1.3788;-4.3835;2.9938;34.8000 
1752.603;0.0718;-0.0103;0.9946;0.0000;0.0000;0.0000;-1.3733;-4.3835;2.9938;34.8700 
1752.603;0.0718;-0.0107;0.9941;0.0000;0.0000;0.0000;-1.3733;-4.3835;2.9938;34.8700 
1752.613;0.0718;-0.0107;0.9941;0.0000;0.0000;0.0000;-1.3678;-4.3835;2.9883;34.7800 
1752.613;0.0718;-0.0107;0.9941;0.0000;0.0000;0.0000;-1.3678;-4.3835;2.9883;34.7800 
1752.613;0.0718;-0.0107;0.9941;0.0000;0.0000;0.0000;-1.3678;-4.3835;2.9828;34.8200 
1752.613;0.0718;-0.0107;0.9941;0.0000;0.0000;0.0000;-1.3623;-4.3835;2.9773;34.8200 
1752.633;0.0718;-0.0107;0.9941;0.0000;0.0000;0.0000;-1.3623;-4.3781;2.9718;34.8400 
1752.633;0.0718;-0.0107;0.9941;0.0000;0.0000;0.0000;-1.3568;-4.3781;2.9718;34.8400 
1752.633;0.0718;-0.0107;0.9941;0.0000;0.0000;0.0000;-1.3568;-4.3781;2.9663;34.7200 
1752.633;0.0718;-0.0107;0.9946;0.0000;0.0000;0.0000;-1.3568;-4.3781;2.9663;34.7200 
1752.647;0.0718;-0.0107;0.9946;0.0000;0.0000;0.0000;-1.3513;-4.3781;2.9608;34.7200 
1752.647;0.0718;-0.0107;0.9946;0.0000;0.0000;0.0000;-1.3513;-4.3781;2.9553;34.8200 
1752.647;0.0718;-0.0107;0.9946;0.0000;0.0000;0.0000;-1.3458;-4.3781;2.9553;34.8200 
1752.648;0.0718;-0.0107;0.9946;0.0000;0.0000;0.0000;-1.3458;-4.3726;2.9498;34.8400 
1752.654;0.0718;-0.0107;0.9946;0.0000;0.0000;0.0000;-1.3458;-4.3726;2.9498;34.8400 
1752.654;0.0718;-0.0107;0.9946;0.0000;0.0000;0.0000;-1.3403;-4.3726;2.9498;34.8300 
1752.662;0.0718;-0.0107;0.9946;0.0000;0.0000;0.0000;-1.3403;-4.3726;2.9498;34.8300 
1752.662;0.0718;-0.0107;0.9946;0.0000;0.0000;0.0000;-1.3348;-4.3726;2.9498;34.8800 
1752.662;0.0718;-0.0107;0.9946;0.0000;0.0000;0.0000;-1.3348;-4.3726;2.9443;34.8800 
1752.662;0.0718;-0.0107;0.9946;0.0000;0.0000;0.0000;-1.3348;-4.3726;2.9443;34.8400 
1752.676;0.0718;-0.0107;0.9946;0.0000;0.0000;0.0000;-1.3293;-4.3726;2.9443;34.8400 
1752.676;0.0718;-0.0107;0.9946;0.0000;0.0000;0.0000;-1.3293;-4.3671;2.9443;34.8200 
1752.676;0.0718;-0.0107;0.9946;0.0000;0.0000;0.0000;-1.3239;-4.3671;2.9388;34.8200 
1752.676;0.0718;-0.0107;0.9946;0.0000;0.0000;0.0000;-1.3239;-4.3671;2.9388;34.8500 
1752.676;0.0718;-0.0107;0.9946;0.0000;0.0000;0.0000;-1.3239;-4.3671;2.9388;34.8500 
1752.676;0.0718;-0.0107;0.9946;0.0000;0.0000;0.0000;-1.3184;-4.3671;2.9388;34.8500 
1752.696;0.0718;-0.0107;0.9946;0.0000;0.0000;0.0000;-1.3184;-4.3671;2.9388;34.8100 
1752.696;0.0718;-0.0107;0.9946;0.0000;0.0000;0.0000;-1.3129;-4.3671;2.9333;34.8100 
1752.706;0.0718;-0.0107;0.9946;0.0000;0.0000;0.0000;-1.3129;-4.3671;2.9333;34.7900 
1752.726;0.0718;-0.0107;0.9946;0.0000;0.0000;0.0000;-1.3129;-4.3616;2.9333;34.7900 
1752.726;0.0718;-0.0107;0.9946;0.0000;0.0000;0.0000;-1.3074;-4.3616;2.9279;34.7600 
1752.726;0.0718;-0.0107;0.9946;0.0000;0.0000;0.0000;-1.3074;-4.3616;2.9279;34.7600 
1752.726;0.0718;-0.0107;0.9946;0.0000;0.0000;0.0000;-1.3074;-4.3616;2.9279;34.7600 
1752.766;0.0718;-0.0103;0.9951;0.0000;0.0000;0.0000;-1.3019;-4.3616;2.9279;34.7600 
1752.766;0.0718;-0.0103;0.9951;0.0000;0.0000;0.0000;-1.3019;-4.3616;2.9279;34.8100 
1752.786;0.0718;-0.0103;0.9951;0.0000;0.0000;0.0000;-1.2964;-4.3616;2.9279;34.8100 
1752.786;0.0718;-0.0103;0.9951;0.0000;0.0000;0.0000;-1.2964;-4.3616;2.9279;34.8100 
1752.786;0.0718;-0.0103;0.9951;0.0000;0.0000;0.0000;-1.2964;-4.3561;2.9279;34.8100 
1752.786;0.0718;-0.0103;0.9951;0.0000;0.0000;0.0000;-1.2909;-4.3561;2.9279;34.7800 
1752.806;0.0718;-0.0103;0.9951;0.0000;0.0000;0.0000;-1.2909;-4.3561;2.9279;34.7800 
1752.806;0.0718;-0.0103;0.9951;0.0000;0.0000;0.0000;-1.2854;-4.3561;2.9333;34.8700 
1752.806;0.0718;-0.0103;0.9951;0.0000;0.0000;0.0000;-1.2854;-4.3561;2.9333;34.8700 
1752.806;0.0718;-0.0103;0.9951;0.0000;0.0000;0.0000;-1.2854;-4.3561;2.9388;34.8700 
1752.846;0.0718;-0.0103;0.9951;0.0000;0.0000;0.0000;-1.2799;-4.3561;2.9443;34.8200 
1752.846;0.0718;-0.0103;0.9951;0.0000;0.0000;0.0000;-1.2799;-4.3506;2.9443;34.8200 
1752.866;0.0718;-0.0103;0.9951;0.0000;0.0000;0.0000;-1.2744;-4.3506;2.9498;34.8400 
1752.866;0.0718;-0.0103;0.9951;0.0000;0.0000;0.0000;-1.2744;-4.3506;2.9553;34.8400 
1752.866;0.0718;-0.0103;0.9951;0.0000;0.0000;0.0000;-1.2744;-4.3506;2.9553;34.9100 
1752.866;0.0718;-0.0103;0.9951;0.0000;0.0000;0.0000;-1.2689;-4.3506;2.9608;34.9100 
1752.866;0.0718;-0.0103;0.9951;0.0000;0.0000;0.0000;-1.2689;-4.3506;2.9608;34.8100 
1752.866;0.0718;-0.0103;0.9951;0.0000;0.0000;0.0000;-1.2689;-4.3506;2.9608;34.8100 
1752.876;0.0718;-0.0103;0.9951;0.0000;0.0000;0.0000;-1.2634;-4.3506;2.9663;34.7400 
1752.876;0.0718;-0.0103;0.9951;0.0000;0.0000;0.0000;-1.2634;-4.3451;2.9663;34.7400 
1752.876;0.0718;-0.0103;0.9951;0.0000;0.0000;0.0000;-1.2579;-4.3451;2.9663;34.7900 
1752.876;0.0718;-0.0103;0.9951;0.0000;0.0000;0.0000;-1.2579;-4.3451;2.9663;34.7900 
1752.876;0.0718;-0.0103;0.9951;0.0000;0.0000;0.0000;-1.2579;-4.3451;2.9663;34.8600 
1752.876;0.0718;-0.0103;0.9951;0.0000;0.0000;0.0000;-1.2524;-4.3451;2.9663;34.8600 
1752.886;0.0718;-0.0103;0.9951;0.0000;0.0000;0.0000;-1.2524;-4.3451;2.9663;34.8000 
1752.886;0.0718;-0.0103;0.9951;0.0000;0.0000;0.0000;-1.2524;-4.3451;2.9663;34.8000 
1752.886;0.0718;-0.0103;0.9951;0.0000;0.0000;0.0000;-1.2469;-4.3451;2.9663;34.8000 
1752.886;0.0718;-0.0103;0.9951;0.0000;0.0000;0.0000;-1.2469;-4.3451;2.9608;34.7400 
1752.905;0.0718;-0.0103;0.9951;0.0000;0.0000;0.0000;-1.2469;-4.3396;2.9608;34.7400 
1752.905;0.0718;-0.0103;0.9951;0.0000;0.0000;0.0000;-1.2415;-4.3396;2.9608;34.8100 
1752.905;0.0718;-0.0103;0.9951;0.0000;0.0000;0.0000;-1.2415;-4.3396;2.9608;34.8100 
1752.915;0.0718;-0.0103;0.9951;0.0000;0.0000;0.0000;-1.2360;-4.3396;2.9553;34.8000 
1752.915;0.0718;-0.0103;0.9951;0.0000;0.0000;0.0000;-1.2360;-4.3396;2.9553;34.8000 
1752.915;0.0718;-0.0103;0.9951;0.0000;0.0000;0.0000;-1.2360;-4.3396;2.9553;34.8500 
1752.915;0.0718;-0.0103;0.9951;0.0000;0.0000;0.0000;-1.2305;-4.3396;2.9553;34.8500 
1752.935;0.0718;-0.0103;0.9951;0.0000;0.0000;0.0000;-1.2305;-4.3396;2.9498;34.8000 
1752.935;0.0718;-0.0103;0.9951;0.0000;0.0000;0.0000;-1.2305;-4.3396;2.9498;34.8000 
1752.945;0.0718;-0.0103;0.9951;0.0000;0.0000;0.0000;-1.2250;-4.3341;2.9498;34.7900 
1752.945;0.0718;-0.0103;0.9951;0.0000;0.0000;0.0000;-1.2250;-4.3341;2.9498;34.7900 
1752.965;0.0718;-0.0103;0.9951;0.0000;0.0000;0.0000;-1.2250;-4.3341;2.9498;34.7800 
1752.965;0.0718;-0.0107;0.9951;0.0000;0.0000;0.0000;-1.2195;-4.3341;2.9498;34.7800 
1752.965;0.0718;-0.0107;0.9951;0.0000;0.0000;0.0000;-1.2195;-4.3341;2.9498;34.8100 
1752.965;0.0718;-0.0107;0.9951;0.0000;0.0000;0.0000;-1.2195;-4.3341;2.9443;34.8100 
1752.975;0.0718;-0.0107;0.9951;0.0000;0.0000;0.0000;-1.2140;-4.3341;2.9443;34.8100 
1752.975;0.0718;-0.0107;0.9951;0.0000;0.0000;0.0000;-1.2140;-4.3341;2.9443;34.7800 
1752.975;0.0718;-0.0107;0.9951;0.0000;0.0000;0.0000;-1.2140;-4.3341;2.9388;34.7800 
1752.975;0.0718;-0.0107;0.9951;0.0000;0.0000;0.0000;-1.2085;-4.3286;2.9388;34.8500 
1752.985;0.0718;-0.0107;0.9951;0.0000;0.0000;0.0000;-1.2085;-4.3286;2.9388;34.8500 
1752.985;0.0718;-0.0107;0.9946;0.0000;0.0000;0.0000;-1.2085;-4.3286;2.9388;34.7900 
1753.005;0.0718;-0.0107;0.9946;0.0000;0.0000;0.0000;-1.2030;-4.3286;2.9388;34.7900 
1753.005;0.0718;-0.0107;0.9946;0.0000;0.0000;0.0000;-1.2030;-4.3286;2.9388;34.7800 
1753.015;0.0718;-0.0107;0.9946;0.0000;0.0000;0.0000;-1.2030;-4.3286;2.9333;34.7800 
1753.015;0.0718;-0.0107;0.9946;0.0000;0.0000;0.0000;-1.1975;-4.3286;2.9333;34.8100 
1753.015;0.0718;-0.0107;0.9946;0.0000;0.0000;0.0000;-1.1975;-4.3286;2.9333;34.8100 
1753.015;0.0718;-0.0107;0.9946;0.0000;0.0000;0.0000;-1.1975;-4.3286;2.9279;34.8100 
1753.015;0.0718;-0.0107;0.9946;0.0000;0.0000;0.0000;-1.1920;-4.3231;2.9279;34.8100 
1753.025;0.0718;-0.0107;0.9946;0.0000;0.0000;0.0000;-1.1920;-4.3231;2.9279;34.7900 
1753.025;0.0718;-0.0107;0.9946;0.0000;0.0000;0.0000;-1.1920;-4.3231;2.9279;34.7900 
1753.025;0.0718;-0.0107;0.9946;0.0000;0.0000;0.0000;-1.1865;-4.3231;2.9224;34.7900 
1753.055;0.0718;-0.0107;0.9946;0.0000;0.0000;0.0000;-1.1865;-4.3231;2.9224;34.8500 
1753.055;0.0718;-0.0107;0.9946;0.0000;0.0000;0.0000;-1.1865;-4.3231;2.9224;34.8500 
1753.075;0.0718;-0.0107;0.9946;0.0000;0.0000;0.0000;-1.1810;-4.3231;2.9169;34.8000 
1753.085;0.0718;-0.0107;0.9946;0.0000;0.0000;0.0000;-1.1810;-4.3231;2.9169;34.8000 
1753.085;0.0718;-0.0107;0.9946;0.0000;0.0000;0.0000;-1.1810;-4.3231;2.9114;34.8100 
1753.085;0.0718;-0.0107;0.9946;0.0000;0.0000;0.0000;-1.1810;-4.3231;2.9114;34.8100 
1753.085;0.0718;-0.0107;0.9946;0.0000;0.0000;0.0000;-1.1755;-4.3176;2.9059;34.7600 
1753.085;0.0718;-0.0107;0.9946;0.0000;0.0000;0.0000;-1.1755;-4.3176;2.9059;34.7600 
1753.085;0.0718;-0.0107;0.9946;0.0000;0.0000;0.0000;-1.1755;-4.3176;2.9059;34.7900 
1753.105;0.0718;-0.0107;0.9946;0.0000;0.0000;0.0000;-1.1700;-4.3176;2.9059;34.7900 
1753.105;0.0718;-0.0107;0.9946;0.0000;0.0000;0.0000;-1.1700;-4.3176;2.9059;34.8100 
1753.105;0.0718;-0.0107;0.9946;0.0000;0.0000;0.0000;-1.1700;-4.3176;2.9004;34.8100 
1753.105;0.0718;-0.0107;0.9946;0.0000;0.0000;0.0000;-1.1646;-4.3176;2.8949;34.8300 
1753.105;0.0718;-0.0107;0.9946;0.0000;0.0000;0.0000;-1.1646;-4.3176;2.8949;34.8300 
1753.105;0.0718;-0.0107;0.9946;0.0000;0.0000;0.0000;-1.1646;-4.3176;2.8949;34.7800 
1753.105;0.0718;-0.0107;0.9946;0.0000;0.0000;0.0000;-1.1591;-4.3176;2.8894;34.7800 
1753.105;0.0718;-0.0107;0.9946;0.0000;0.0000;0.0000;-1.1591;-4.3121;2.8894;34.7800 
1753.115;0.0718;-0.0107;0.9946;0.0000;0.0000;0.0000;-1.1591;-4.3121;2.8894;34.8400 
1753.115;0.0718;-0.0107;0.9946;0.0000;0.0000;0.0000;-1.1591;-4.3121;2.8894;34.8400 
1753.115;0.0718;-0.0107;0.9946;0.0000;0.0000;0.0000;-1.1536;-4.3121;2.8894;34.8100 
1753.115;0.0718;-0.0107;0.9946;0.0000;0.0000;0.0000;-1.1536;-4.3121;2.8894;34.8100 
1753.135;0.0718;-0.0103;0.9946;0.0000;0.0000;0.0000;-1.1536;-4.3121;2.8894;34.7400 
1753.135;0.0718;-0.0103;0.9946;0.0000;0.0000;0.0000;-1.1481;-4.3121;2.8894;34.7400 
1753.145;0.0718;-0.0103;0.9946;0.0000;0.0000;0.0000;-1.1481;-4.3121;2.8894;34.7800 
1753.145;0.0718;-0.0103;0.9946;0.0000;0.0000;0.0000;-1.1481;-4.3121;2.8839;34.7800 
1753.145;0.0718;-0.0103;0.9946;0.0000;0.0000;0.0000;-1.1426;-4.3121;2.8839;34.7600 
1753.145;0.0718;-0.0103;0.9946;0.0000;0.0000;0.0000;-1.1426;-4.3066;2.8839;34.7600 
1753.185;0.0718;-0.0103;0.9946;0.0000;0.0000;0.0000;-1.1426;-4.3066;2.8784;34.8300 
1753.185;0.0718;-0.0103;0.9946;0.0000;0.0000;0.0000;-1.1426;-4.3066;2.8729;34.8300 
