Time;ax;ay;az;wx;wy;wz;AngleX;AngleY;AngleZ;T 
1810.384;0.0063;0.0137;0.9927;0.0000;0.0000;0.0000;0.7581;-0.3351;-48.7244;34.8700 
1810.384;0.0063;0.0137;0.9927;0.0000;0.0000;0.0000;0.7581;-0.3351;-48.7244;34.9200 
1810.384;0.0054;0.0127;0.9922;0.0000;0.0000;0.0000;0.7581;-0.3351;-48.7244;34.9200 
1810.384;0.0054;0.0127;0.9922;0.0000;0.0000;0.0000;0.7581;-0.3351;-48.7244;34.9100 
1810.384;0.0054;0.0127;0.9922;0.0000;0.0000;0.0000;0.7581;-0.3351;-48.7244;34.9100 
1810.384;0.0054;0.0127;0.9922;0.0000;0.0000;0.0000;0.7581;-0.3351;-48.7244;34.8700 
1810.384;0.0054;0.0127;0.9922;0.0000;0.0000;0.0000;0.7581;-0.3351;-48.7244;34.8700 
1810.384;0.0054;0.0127;0.9922;0.0000;0.0000;0.0000;0.7581;-0.3351;-48.7244;34.8100 
1810.384;0.0054;0.0127;0.9922;0.0000;0.0000;0.0000;0.7581;-0.3351;-48.7244;34.8100 
1810.384;0.0054;0.0127;0.9922;0.0000;0.0000;0.0000;0.7581;-0.3351;-48.7244;34.8200 
1810.384;0.0063;0.0151;0.9927;0.0000;0.0000;0.0000;0.7581;-0.3351;-48.7244;34.8200 
1810.384;0.0063;0.0151;0.9927;0.0000;0.0000;0.0000;0.7581;-0.3351;-48.7244;34.9300 
1810.384;0.0063;0.0151;0.9927;0.0000;0.0000;0.0000;0.7581;-0.3351;-48.7244;34.9300 
1810.384;0.0063;0.0151;0.9927;0.0000;0.0000;0.0000;0.7581;-0.3351;-48.7244;34.9000 
1810.404;0.0063;0.0151;0.9927;0.0000;0.0000;0.0000;0.7581;-0.3351;-48.7244;34.9000 
1810.404;0.0063;0.0151;0.9927;0.0000;0.0000;0.0000;0.7581;-0.3351;-48.7244;34.9000 
1810.404;0.0063;0.0151;0.9927;0.0000;0.0000;0.0000;0.7635;-0.3351;-48.7244;34.8100 
1810.404;0.0063;0.0151;0.9927;0.0000;0.0000;0.0000;0.7635;-0.3351;-48.7244;34.8100 
1810.404;0.0059;0.0151;0.9922;0.0000;0.0000;0.0000;0.7635;-0.3351;-48.7244;34.8700 
1810.404;0.0059;0.0151;0.9922;0.0000;0.0000;0.0000;0.7635;-0.3351;-48.7299;34.8700 
1810.414;0.0059;0.0151;0.9922;0.0000;0.0000;0.0000;0.7635;-0.3351;-48.7299;34.8200 
1810.414;0.0059;0.0151;0.9922;0.0000;0.0000;0.0000;0.7635;-0.3351;-48.7299;34.8200 
1810.434;0.0059;0.0151;0.9922;0.0000;0.0000;0.0000;0.7635;-0.3351;-48.7299;34.8900 
1810.434;0.0059;0.0151;0.9922;0.0000;0.0000;0.0000;0.7635;-0.3351;-48.7299;34.8900 
1810.444;0.0059;0.0151;0.9922;0.0000;0.0000;0.0000;0.7635;-0.3351;-48.7299;34.8600 
1810.444;0.0059;0.0151;0.9922;0.0000;0.0000;0.0000;0.7635;-0.3351;-48.7244;34.8600 
1810.444;0.0059;0.0132;0.9922;0.0000;0.0000;0.0000;0.7635;-0.3351;-48.7244;34.8800 
1810.444;0.0059;0.0132;0.9922;0.0000;0.0000;0.0000;0.7635;-0.3351;-48.7244;34.8800 
1810.464;0.0059;0.0132;0.9922;0.0000;0.0000;0.0000;0.7635;-0.3351;-48.7299;34.9300 
1810.464;0.0059;0.0132;0.9922;0.0000;0.0000;0.0000;0.7635;-0.3351;-48.7299;34.9300 
1810.474;0.0059;0.0132;0.9922;0.0000;0.0000;0.0000;0.7635;-0.3351;-48.7299;34.8800 
1810.474;0.0059;0.0132;0.9922;0.0000;0.0000;0.0000;0.7635;-0.3351;-48.7299;34.8800 
1810.474;0.0059;0.0132;0.9922;0.0000;0.0000;0.0000;0.7635;-0.3351;-48.7299;34.8800 
1810.564;0.0059;0.0132;0.9922;0.0000;0.0000;0.0000;0.7635;-0.3351;-48.7299;34.9100 
1810.564;0.0054;0.0122;0.9917;0.0000;0.0000;0.0000;0.7635;-0.3351;-48.7299;34.9100 
1810.574;0.0054;0.0122;0.9917;0.0000;0.0000;0.0000;0.7635;-0.3351;-48.7299;34.9100 
1810.574;0.0054;0.0122;0.9917;0.0000;0.0000;0.0000;0.7635;-0.3351;-48.7299;34.9100 
1810.574;0.0054;0.0122;0.9917;0.0000;0.0000;0.0000;0.7635;-0.3351;-48.7354;34.9300 
1810.574;0.0054;0.0122;0.9917;0.0000;0.0000;0.0000;0.7635;-0.3351;-48.7354;34.9300 
1810.574;0.0054;0.0122;0.9917;0.0000;0.0000;0.0000;0.7635;-0.3351;-48.7354;34.9200 
1810.574;0.0054;0.0122;0.9917;0.0000;0.0000;0.0000;0.7635;-0.3351;-48.7354;34.9200 
1810.574;0.0054;0.0122;0.9917;0.0000;0.0000;0.0000;0.7635;-0.3351;-48.7354;34.9000 
1810.574;0.0039;0.0117;0.9922;0.0000;0.0000;0.0000;0.7635;-0.3351;-48.7354;34.9000 
1810.574;0.0039;0.0117;0.9922;0.0000;0.0000;0.0000;0.7635;-0.3351;-48.7354;34.8400 
1810.574;0.0039;0.0117;0.9922;0.0000;0.0000;0.0000;0.7635;-0.3351;-48.7408;34.8400 
1810.574;0.0039;0.0117;0.9922;0.0000;0.0000;0.0000;0.7635;-0.3351;-48.7408;34.8700 
1810.574;0.0039;0.0117;0.9922;0.0000;0.0000;0.0000;0.7635;-0.3351;-48.7408;34.8700 
1810.574;0.0039;0.0117;0.9922;0.0000;0.0000;0.0000;0.7635;-0.3351;-48.7408;34.8700 
1810.574;0.0039;0.0117;0.9922;0.0000;0.0000;0.0000;0.7635;-0.3351;-48.7408;34.8600 
1810.574;0.0039;0.0117;0.9922;0.0000;0.0000;0.0000;0.7635;-0.3351;-48.7463;34.8600 
1810.574;0.0049;0.0171;0.9902;0.0000;0.0000;0.0000;0.7635;-0.3351;-48.7463;34.9100 
1810.584;0.0049;0.0171;0.9902;0.0000;0.0000;0.0000;0.7635;-0.3296;-48.7463;34.9100 
1810.584;0.0049;0.0171;0.9902;0.0000;0.0000;0.0000;0.7635;-0.3296;-48.7463;34.8900 
1810.594;0.0049;0.0171;0.9902;0.0000;0.0000;0.0000;0.7635;-0.3296;-48.7463;34.8900 
1810.594;0.0049;0.0171;0.9902;0.0000;0.0000;0.0000;0.7635;-0.3296;-48.7463;34.9100 
1810.594;0.0049;0.0171;0.9902;0.0000;0.0000;0.0000;0.7635;-0.3296;-48.7518;34.9100 
1810.594;0.0049;0.0171;0.9902;0.0000;0.0000;0.0000;0.7635;-0.3296;-48.7518;34.8100 
1810.604;0.0049;0.0171;0.9902;0.0000;0.0000;0.0000;0.7690;-0.3296;-48.7518;34.8100 
1810.614;0.0059;0.0132;0.9927;0.0000;0.0000;0.0000;0.7690;-0.3296;-48.7518;34.9000 
1810.614;0.0059;0.0132;0.9927;0.0000;0.0000;0.0000;0.7690;-0.3296;-48.7463;34.9000 
1810.624;0.0059;0.0132;0.9927;0.0000;0.0000;0.0000;0.7690;-0.3296;-48.7463;34.8700 
1810.624;0.0059;0.0132;0.9927;0.0000;0.0000;0.0000;0.7690;-0.3296;-48.7463;34.8700 
1810.634;0.0059;0.0132;0.9927;0.0000;0.0000;0.0000;0.7690;-0.3296;-48.7518;34.8800 
1810.634;0.0059;0.0132;0.9927;0.0000;0.0000;0.0000;0.7690;-0.3296;-48.7518;34.8800 
1810.634;0.0059;0.0132;0.9927;0.0000;0.0000;0.0000;0.7690;-0.3296;-48.7518;34.8800 
1810.634;0.0059;0.0132;0.9927;0.0000;0.0000;0.0000;0.7690;-0.3296;-48.7518;34.8400 
1810.644;0.0044;0.0122;0.9902;0.0000;0.0000;0.0000;0.7690;-0.3296;-48.7573;34.8400 
1810.644;0.0044;0.0122;0.9902;0.0000;0.0000;0.0000;0.7635;-0.3296;-48.7573;34.8100 
1810.654;0.0044;0.0122;0.9902;0.0000;0.0000;0.0000;0.7635;-0.3296;-48.7573;34.8100 
1810.654;0.0044;0.0122;0.9902;0.0000;0.0000;0.0000;0.7635;-0.3296;-48.7573;34.8200 
1810.674;0.0044;0.0122;0.9902;0.0000;0.0000;0.0000;0.7635;-0.3296;-48.7573;34.8200 
1810.674;0.0044;0.0122;0.9902;0.0000;0.0000;0.0000;0.7635;-0.3296;-48.7628;34.8900 
1810.674;0.0044;0.0122;0.9902;0.0000;0.0000;0.0000;0.7635;-0.3296;-48.7628;34.8900 
1810.674;0.0044;0.0122;0.9902;0.0000;0.0000;0.0000;0.7635;-0.3296;-48.7628;34.8600 
1810.774;0.0063;0.0112;0.9912;0.0000;0.0000;0.0000;0.7635;-0.3296;-48.7628;34.8600 
1810.774;0.0063;0.0112;0.9912;0.0000;0.0000;0.0000;0.7635;-0.3296;-48.7683;34.8800 
1810.794;0.0063;0.0112;0.9912;0.0000;0.0000;0.0000;0.7635;-0.3296;-48.7683;34.8800 
1810.794;0.0063;0.0112;0.9912;0.0000;0.0000;0.0000;0.7635;-0.3296;-48.7738;34.8500 
1810.794;0.0063;0.0112;0.9912;0.0000;0.0000;0.0000;0.7635;-0.3296;-48.7738;34.8500 
1810.794;0.0063;0.0112;0.9912;0.0000;0.0000;0.0000;0.7635;-0.3296;-48.7738;34.8900 
1810.794;0.0063;0.0112;0.9912;0.0000;0.0000;0.0000;0.7635;-0.3296;-48.7793;34.8900 
1810.794;0.0063;0.0112;0.9912;0.0000;0.0000;0.0000;0.7635;-0.3296;-48.7793;34.8900 
1810.794;0.0068;0.0063;0.9927;0.0000;0.0000;0.0000;0.7635;-0.3296;-48.7793;34.9500 
1810.794;0.0068;0.0063;0.9927;0.0000;0.0000;0.0000;0.7581;-0.3296;-48.7793;34.9500 
1810.794;0.0068;0.0063;0.9927;0.0000;0.0000;0.0000;0.7581;-0.3296;-48.7793;34.8800 
1810.794;0.0068;0.0063;0.9927;0.0000;0.0000;0.0000;0.7581;-0.3296;-48.7793;34.8800 
1810.794;0.0068;0.0063;0.9927;0.0000;0.0000;0.0000;0.7581;-0.3296;-48.7793;34.9200 
1810.794;0.0068;0.0063;0.9927;0.0000;0.0000;0.0000;0.7581;-0.3296;-48.7738;34.9200 
1810.794;0.0068;0.0063;0.9927;0.0000;0.0000;0.0000;0.7526;-0.3296;-48.7738;34.9400 
1810.794;0.0068;0.0063;0.9927;0.0000;0.0000;0.0000;0.7526;-0.3296;-48.7738;34.9400 
1810.794;0.0068;0.0078;0.9927;0.0610;0.0000;-0.2441;0.7526;-0.3296;-48.7738;34.8400 
1810.794;0.0068;0.0078;0.9927;0.0610;0.0000;-0.2441;0.7526;-0.3296;-48.7793;34.8400 
1810.794;0.0068;0.0078;0.9927;0.0610;0.0000;-0.2441;0.7526;-0.3296;-48.7793;34.8500 
1810.794;0.0068;0.0078;0.9927;0.0610;0.0000;-0.2441;0.7526;-0.3351;-48.7793;34.8500 
1810.794;0.0068;0.0078;0.9927;0.0610;0.0000;-0.2441;0.7526;-0.3351;-48.7848;34.9000 
1810.794;0.0068;0.0078;0.9927;0.0610;0.0000;-0.2441;0.7471;-0.3351;-48.7848;34.9000 
1810.794;0.0068;0.0078;0.9927;0.0610;0.0000;-0.2441;0.7471;-0.3351;-48.7848;34.8800 
1810.814;0.0068;0.0078;0.9927;0.0610;0.0000;-0.2441;0.7471;-0.3351;-48.7903;34.8800 
1810.814;0.0088;0.0156;0.9927;0.3052;0.0000;-0.1831;0.7526;-0.3351;-48.7903;34.8800 
1810.834;0.0088;0.0156;0.9927;0.3052;0.0000;-0.1831;0.7526;-0.3351;-48.7903;34.8600 
1810.834;0.0088;0.0156;0.9927;0.3052;0.0000;-0.1831;0.7526;-0.3351;-48.7903;34.8600 
1810.834;0.0088;0.0156;0.9927;0.3052;0.0000;-0.1831;0.7581;-0.3351;-48.7903;34.8900 
1810.834;0.0088;0.0156;0.9927;0.3052;0.0000;-0.1831;0.7581;-0.3351;-48.7903;34.8900 
1810.834;0.0088;0.0156;0.9927;0.3052;0.0000;-0.1831;0.7581;-0.3351;-48.7903;34.9100 
1810.834;0.0088;0.0156;0.9927;0.3052;0.0000;-0.1831;0.7635;-0.3351;-48.7903;34.9100 
1810.844;0.0088;0.0156;0.9927;0.3052;0.0000;-0.1831;0.7635;-0.3351;-48.7958;34.8700 
1810.844;0.0073;0.0034;0.9932;0.3662;0.0610;-0.0610;0.7635;-0.3351;-48.7903;34.8700 
1810.854;0.0073;0.0034;0.9932;0.3662;0.0610;-0.0610;0.7635;-0.3351;-48.7903;34.8700 
1810.854;0.0073;0.0034;0.9932;0.3662;0.0610;-0.0610;0.7635;-0.3351;-48.7903;34.8700 
1810.864;0.0073;0.0034;0.9932;0.3662;0.0610;-0.0610;0.7635;-0.3351;-48.7903;34.9400 
1810.864;0.0073;0.0034;0.9932;0.3662;0.0610;-0.0610;0.7635;-0.3351;-48.7903;34.9400 
1810.884;0.0073;0.0034;0.9932;0.3662;0.0610;-0.0610;0.7635;-0.3351;-48.7903;34.8400 
1810.884;0.0073;0.0034;0.9932;0.3662;0.0610;-0.0610;0.7635;-0.3351;-48.7903;34.8400 
1810.884;0.0073;0.0034;0.9932;0.3662;0.0610;-0.0610;0.7635;-0.3351;-48.7903;34.8400 
1810.884;0.0059;0.0093;0.9917;0.3662;0.1831;0.0610;0.7690;-0.3351;-48.7903;34.9100 
1810.974;0.0059;0.0093;0.9917;0.3662;0.1831;0.0610;0.7690;-0.3351;-48.7903;34.9100 
1810.974;0.0059;0.0093;0.9917;0.3662;0.1831;0.0610;0.7690;-0.3351;-48.7848;34.7900 
1810.984;0.0059;0.0093;0.9917;0.3662;0.1831;0.0610;0.7690;-0.3351;-48.7848;34.7900 
1810.984;0.0059;0.0093;0.9917;0.3662;0.1831;0.0610;0.7690;-0.3296;-48.7848;34.8500 
1810.984;0.0059;0.0093;0.9917;0.3662;0.1831;0.0610;0.7745;-0.3296;-48.7848;34.8500 
1810.984;0.0059;0.0093;0.9917;0.3662;0.1831;0.0610;0.7745;-0.3296;-48.7848;34.8500 
1810.984;0.0059;0.0093;0.9917;0.3662;0.1831;0.0610;0.7745;-0.3296;-48.7848;34.8500 
1810.984;0.0049;0.0122;0.9912;0.3662;0.2441;0.3052;0.7745;-0.3296;-48.7848;34.9300 
1810.984;0.0049;0.0122;0.9912;0.3662;0.2441;0.3052;0.7800;-0.3241;-48.7793;34.9300 
1810.984;0.0049;0.0122;0.9912;0.3662;0.2441;0.3052;0.7800;-0.3241;-48.7793;34.8700 
1810.984;0.0049;0.0122;0.9912;0.3662;0.2441;0.3052;0.7800;-0.3241;-48.7738;34.8700 
1810.984;0.0049;0.0122;0.9912;0.3662;0.2441;0.3052;0.7855;-0.3241;-48.7738;34.8200 
1810.984;0.0049;0.0122;0.9912;0.3662;0.2441;0.3052;0.7855;-0.3186;-48.7683;34.8200 
1810.984;0.0049;0.0122;0.9912;0.3662;0.2441;0.3052;0.7855;-0.3186;-48.7683;34.8400 
1810.984;0.0049;0.0122;0.9912;0.3662;0.2441;0.3052;0.7855;-0.3186;-48.7628;34.8400 
1810.984;0.0039;0.0122;0.9912;0.3052;0.1831;0.4883;0.7910;-0.3186;-48.7628;34.8400 
1810.984;0.0039;0.0122;0.9912;0.3052;0.1831;0.4883;0.7910;-0.3186;-48.7628;34.8900 
1810.984;0.0039;0.0122;0.9912;0.3052;0.1831;0.4883;0.7910;-0.3131;-48.7573;34.8900 
1810.984;0.0039;0.0122;0.9912;0.3052;0.1831;0.4883;0.7910;-0.3131;-48.7573;34.8700 
1810.984;0.0039;0.0122;0.9912;0.3052;0.1831;0.4883;0.7965;-0.3131;-48.7518;34.8700 
1810.984;0.0039;0.0122;0.9912;0.3052;0.1831;0.4883;0.7965;-0.3131;-48.7518;34.8700 
1810.994;0.0039;0.0122;0.9912;0.3052;0.1831;0.4883;0.7965;-0.3131;-48.7463;34.8700 
1810.994;0.0039;0.0122;0.9912;0.3052;0.1831;0.4883;0.7965;-0.3076;-48.7463;34.8100 
1811.004;0.0029;0.0181;0.9907;0.2441;0.1221;0.5493;0.8020;-0.3076;-48.7408;34.8100 
1811.004;0.0029;0.0181;0.9907;0.2441;0.1221;0.5493;0.8020;-0.3076;-48.7408;34.8600 
1811.024;0.0029;0.0181;0.9907;0.2441;0.1221;0.5493;0.8020;-0.3076;-48.7354;34.8600 
1811.024;0.0029;0.0181;0.9907;0.2441;0.1221;0.5493;0.8075;-0.3076;-48.7299;34.8400 
1811.024;0.0029;0.0181;0.9907;0.2441;0.1221;0.5493;0.8075;-0.3021;-48.7299;34.8400 
1811.024;0.0029;0.0181;0.9907;0.2441;0.1221;0.5493;0.8075;-0.3021;-48.7244;34.8600 
1811.034;0.0029;0.0181;0.9907;0.2441;0.1221;0.5493;0.8130;-0.3021;-48.7244;34.8600 
1811.034;0.0029;0.0181;0.9907;0.2441;0.1221;0.5493;0.8130;-0.3021;-48.7189;34.9100 
1811.054;0.0024;0.0229;0.9902;0.1221;0.0000;0.4272;0.8130;-0.3021;-48.7189;34.9100 
1811.054;0.0024;0.0229;0.9902;0.1221;0.0000;0.4272;0.8185;-0.3021;-48.7189;34.9100 
1811.084;0.0024;0.0229;0.9902;0.1221;0.0000;0.4272;0.8185;-0.3021;-48.7189;34.9400 
1811.084;0.0024;0.0229;0.9902;0.1221;0.0000;0.4272;0.8240;-0.3021;-48.7189;34.9400 
1811.184;0.0024;0.0229;0.9902;0.1221;0.0000;0.4272;0.8240;-0.2966;-48.7134;34.8500 
1811.184;0.0024;0.0229;0.9902;0.1221;0.0000;0.4272;0.8240;-0.2966;-48.7134;34.8500 
1811.184;0.0024;0.0229;0.9902;0.1221;0.0000;0.4272;0.8295;-0.2966;-48.7134;34.8900 
1811.184;0.0024;0.0229;0.9902;0.1221;0.0000;0.4272;0.8295;-0.2966;-48.7134;34.8900 
1811.194;-0.0005;0.0166;0.9902;0.0000;-0.1221;0.2441;0.8295;-0.2966;-48.7134;34.9400 
1811.194;-0.0005;0.0166;0.9902;0.0000;-0.1221;0.2441;0.8295;-0.2966;-48.7134;34.9400 
1811.194;-0.0005;0.0166;0.9902;0.0000;-0.1221;0.2441;0.8295;-0.2966;-48.7134;34.8200 
1811.194;-0.0005;0.0166;0.9902;0.0000;-0.1221;0.2441;0.8295;-0.2966;-48.7134;34.8200 
1811.194;-0.0005;0.0166;0.9902;0.0000;-0.1221;0.2441;0.8350;-0.2966;-48.7134;34.9000 
1811.194;-0.0005;0.0166;0.9902;0.0000;-0.1221;0.2441;0.8350;-0.2966;-48.7134;34.9000 
1811.194;-0.0005;0.0166;0.9902;0.0000;-0.1221;0.2441;0.8350;-0.2966;-48.7079;34.8900 
1811.194;-0.0005;0.0166;0.9902;0.0000;-0.1221;0.2441;0.8350;-0.2966;-48.7079;34.8900 
1811.194;0.0024;0.0122;0.9917;-0.1221;-0.2441;0.0000;0.8350;-0.2966;-48.7079;34.8900 
1811.194;0.0024;0.0122;0.9917;-0.1221;-0.2441;0.0000;0.8295;-0.2966;-48.7079;34.8900 
1811.194;0.0024;0.0122;0.9917;-0.1221;-0.2441;0.0000;0.8295;-0.2966;-48.7134;34.8900 
1811.194;0.0024;0.0122;0.9917;-0.1221;-0.2441;0.0000;0.8295;-0.2966;-48.7134;34.9100 
1811.194;0.0024;0.0122;0.9917;-0.1221;-0.2441;0.0000;0.8295;-0.2966;-48.7134;34.9100 
1811.194;0.0024;0.0122;0.9917;-0.1221;-0.2441;0.0000;0.8295;-0.3021;-48.7134;34.8400 
1811.194;0.0024;0.0122;0.9917;-0.1221;-0.2441;0.0000;0.8240;-0.3021;-48.7189;34.8400 
1811.194;0.0024;0.0122;0.9917;-0.1221;-0.2441;0.0000;0.8240;-0.3021;-48.7189;34.9000 
1811.194;0.0054;0.0161;0.9922;-0.1221;-0.3662;-0.2441;0.8240;-0.3021;-48.7189;34.9000 
1811.194;0.0054;0.0161;0.9922;-0.1221;-0.3662;-0.2441;0.8240;-0.3021;-48.7244;34.7800 
1811.194;0.0054;0.0161;0.9922;-0.1221;-0.3662;-0.2441;0.8240;-0.3076;-48.7244;34.7800 
1811.194;0.0054;0.0161;0.9922;-0.1221;-0.3662;-0.2441;0.8240;-0.3076;-48.7244;34.8600 
1811.194;0.0054;0.0161;0.9922;-0.1221;-0.3662;-0.2441;0.8240;-0.3076;-48.7299;34.8600 
1811.194;0.0054;0.0161;0.9922;-0.1221;-0.3662;-0.2441;0.8240;-0.3131;-48.7299;34.8800 
1811.194;0.0054;0.0161;0.9922;-0.1221;-0.3662;-0.2441;0.8240;-0.3131;-48.7299;34.8800 
1811.214;0.0054;0.0161;0.9922;-0.1221;-0.3662;-0.2441;0.8240;-0.3131;-48.7354;34.8100 
1811.214;0.0117;0.0176;0.9946;0.0000;-0.4272;-0.7324;0.8240;-0.3186;-48.7408;34.8100 
1811.214;0.0117;0.0176;0.9946;0.0000;-0.4272;-0.7324;0.8240;-0.3241;-48.7408;34.8100 
1811.214;0.0117;0.0176;0.9946;0.0000;-0.4272;-0.7324;0.8240;-0.3241;-48.7463;34.8000 
1811.224;0.0117;0.0176;0.9946;0.0000;-0.4272;-0.7324;0.8240;-0.3296;-48.7518;34.8000 
1811.224;0.0117;0.0176;0.9946;0.0000;-0.4272;-0.7324;0.8240;-0.3296;-48.7518;34.9300 
1811.244;0.0117;0.0176;0.9946;0.0000;-0.4272;-0.7324;0.8295;-0.3351;-48.7573;34.9300 
1811.244;0.0117;0.0176;0.9946;0.0000;-0.4272;-0.7324;0.8295;-0.3351;-48.7628;34.8500 
1811.244;0.0117;0.0176;0.9946;0.0000;-0.4272;-0.7324;0.8295;-0.3406;-48.7683;34.8500 
1811.264;0.0151;0.0107;0.9966;0.1831;-0.4272;-1.2817;0.8295;-0.3461;-48.7738;34.8400 
1811.264;0.0151;0.0107;0.9966;0.1831;-0.4272;-1.2817;0.8295;-0.3461;-48.7793;34.8400 
1811.264;0.0151;0.0107;0.9966;0.1831;-0.4272;-1.2817;0.8295;-0.3516;-48.7903;34.8400 
1811.264;0.0151;0.0107;0.9966;0.1831;-0.4272;-1.2817;0.8295;-0.3571;-48.7958;34.8400 
1811.284;0.0151;0.0107;0.9966;0.1831;-0.4272;-1.2817;0.8295;-0.3571;-48.8013;34.9100 
1811.284;0.0151;0.0107;0.9966;0.1831;-0.4272;-1.2817;0.8295;-0.3625;-48.8123;34.9100 
1811.384;0.0151;0.0107;0.9966;0.1831;-0.4272;-1.2817;0.8295;-0.3680;-48.8177;34.8400 
1811.384;0.0151;0.0107;0.9966;0.1831;-0.4272;-1.2817;0.8295;-0.3680;-48.8287;34.8400 
1811.384;0.0132;0.0161;0.9946;0.3662;-0.2441;-1.8311;0.8350;-0.3735;-48.8342;34.8600 
1811.384;0.0132;0.0161;0.9946;0.3662;-0.2441;-1.8311;0.8350;-0.3735;-48.8452;34.8600 
1811.384;0.0132;0.0161;0.9946;0.3662;-0.2441;-1.8311;0.8350;-0.3735;-48.8562;34.8600 
1811.384;0.0132;0.0161;0.9946;0.3662;-0.2441;-1.8311;0.8405;-0.3790;-48.8672;34.8800 
1811.384;0.0132;0.0161;0.9946;0.3662;-0.2441;-1.8311;0.8405;-0.3790;-48.8782;34.8800 
1811.384;0.0132;0.0161;0.9946;0.3662;-0.2441;-1.8311;0.8459;-0.3845;-48.8892;34.9000 
1811.394;0.0132;0.0161;0.9946;0.3662;-0.2441;-1.8311;0.8459;-0.3845;-48.8947;34.9000 
1811.394;0.0132;0.0161;0.9946;0.3662;-0.2441;-1.8311;0.8459;-0.3845;-48.9056;34.8600 
1811.394;0.0132;0.0112;0.9951;0.4883;0.0000;-2.0752;0.8514;-0.3900;-48.9166;34.8600 
1811.394;0.0132;0.0112;0.9951;0.4883;0.0000;-2.0752;0.8514;-0.3900;-48.9276;34.8700 
1811.394;0.0132;0.0112;0.9951;0.4883;0.0000;-2.0752;0.8514;-0.3900;-48.9386;34.8700 
1811.394;0.0132;0.0112;0.9951;0.4883;0.0000;-2.0752;0.8569;-0.3900;-48.9496;34.8800 
1811.394;0.0132;0.0112;0.9951;0.4883;0.0000;-2.0752;0.8569;-0.3900;-48.9606;34.8800 
1811.394;0.0132;0.0112;0.9951;0.4883;0.0000;-2.0752;0.8569;-0.3900;-48.9716;34.9300 
1811.394;0.0132;0.0112;0.9951;0.4883;0.0000;-2.0752;0.8624;-0.3955;-48.9825;34.9300 
1811.394;0.0132;0.0112;0.9951;0.4883;0.0000;-2.0752;0.8624;-0.3955;-48.9935;34.8700 
1811.394;0.0054;0.0015;0.9922;0.3662;0.2441;-1.8921;0.8624;-0.3900;-49.0045;34.8700 
1811.394;0.0054;0.0015;0.9922;0.3662;0.2441;-1.8921;0.8624;-0.3900;-49.0100;34.8900 
1811.394;0.0054;0.0015;0.9922;0.3662;0.2441;-1.8921;0.8624;-0.3900;-49.0210;34.8900 
1811.394;0.0054;0.0015;0.9922;0.3662;0.2441;-1.8921;0.8624;-0.3900;-49.0320;34.8900 
1811.394;0.0054;0.0015;0.9922;0.3662;0.2441;-1.8921;0.8624;-0.3845;-49.0430;34.8400 
1811.394;0.0054;0.0015;0.9922;0.3662;0.2441;-1.8921;0.8624;-0.3845;-49.0540;34.8400 
1811.414;0.0054;0.0015;0.9922;0.3662;0.2441;-1.8921;0.8624;-0.3845;-49.0649;34.8400 
1811.414;0.0054;0.0015;0.9922;0.3662;0.2441;-1.8921;0.8624;-0.3790;-49.0704;34.8400 
1811.414;0.0054;0.0068;0.9922;0.2441;0.3662;-1.3428;0.8624;-0.3790;-49.0814;34.8500 
1811.414;0.0054;0.0068;0.9922;0.2441;0.3662;-1.3428;0.8624;-0.3790;-49.0869;34.8500 
1811.424;0.0054;0.0068;0.9922;0.2441;0.3662;-1.3428;0.8569;-0.3735;-49.0924;34.9100 
1811.424;0.0054;0.0068;0.9922;0.2441;0.3662;-1.3428;0.8569;-0.3735;-49.1034;34.9100 
1811.424;0.0054;0.0068;0.9922;0.2441;0.3662;-1.3428;0.8569;-0.3680;-49.1089;34.8300 
1811.434;0.0054;0.0068;0.9922;0.2441;0.3662;-1.3428;0.8569;-0.3680;-49.1144;34.8300 
1811.434;0.0054;0.0068;0.9922;0.2441;0.3662;-1.3428;0.8569;-0.3680;-49.1254;34.9100 
1811.454;0.0054;0.0068;0.9922;0.2441;0.3662;-1.3428;0.8569;-0.3625;-49.1309;34.9100 
1811.454;0.0020;0.0112;0.9902;0.1831;0.4272;-0.6104;0.8569;-0.3625;-49.1364;34.9000 
1811.454;0.0020;0.0112;0.9902;0.1831;0.4272;-0.6104;0.8624;-0.3571;-49.1418;34.9000 
1811.454;0.0020;0.0112;0.9902;0.1831;0.4272;-0.6104;0.8624;-0.3571;-49.1473;34.8300 
1811.464;0.0020;0.0112;0.9902;0.1831;0.4272;-0.6104;0.8624;-0.3516;-49.1528;34.8300 
1811.464;0.0020;0.0112;0.9902;0.1831;0.4272;-0.6104;0.8624;-0.3516;-49.1583;34.8300 
1811.474;0.0020;0.0112;0.9902;0.1831;0.4272;-0.6104;0.8624;-0.3461;-49.1638;34.8700 
1811.474;0.0020;0.0112;0.9902;0.1831;0.4272;-0.6104;0.8624;-0.3461;-49.1693;34.8700 
1811.484;0.0020;0.0112;0.9902;0.1831;0.4272;-0.6104;0.8624;-0.3406;-49.1748;34.8400 
1811.484;0.0034;0.0103;0.9922;0.1221;0.3662;-0.0610;0.8624;-0.3406;-49.1803;34.8400 
1811.494;0.0034;0.0103;0.9922;0.1221;0.3662;-0.0610;0.8624;-0.3351;-49.1858;34.7900 
1811.494;0.0034;0.0103;0.9922;0.1221;0.3662;-0.0610;0.8624;-0.3351;-49.1858;34.7900 
1811.574;0.0034;0.0103;0.9922;0.1221;0.3662;-0.0610;0.8624;-0.3296;-49.1913;34.9000 
1811.574;0.0034;0.0103;0.9922;0.1221;0.3662;-0.0610;0.8624;-0.3296;-49.1913;34.9000 
1811.594;0.0034;0.0103;0.9922;0.1221;0.3662;-0.0610;0.8624;-0.3296;-49.1968;34.8900 
1811.594;0.0034;0.0103;0.9922;0.1221;0.3662;-0.0610;0.8624;-0.3241;-49.1968;34.8900 
1811.594;0.0034;0.0103;0.9922;0.1221;0.3662;-0.0610;0.8624;-0.3241;-49.1968;34.8800 
1811.594;0.0015;0.0137;0.9902;0.0000;0.2441;0.2441;0.8624;-0.3186;-49.1968;34.8800 
1811.594;0.0015;0.0137;0.9902;0.0000;0.2441;0.2441;0.8624;-0.3186;-49.1968;34.8000 
1811.594;0.0015;0.0137;0.9902;0.0000;0.2441;0.2441;0.8569;-0.3186;-49.1968;34.8000 
1811.594;0.0015;0.0137;0.9902;0.0000;0.2441;0.2441;0.8569;-0.3131;-49.1913;34.8100 
1811.594;0.0015;0.0137;0.9902;0.0000;0.2441;0.2441;0.8569;-0.3131;-49.1968;34.8100 
1811.594;0.0015;0.0137;0.9902;0.0000;0.2441;0.2441;0.8569;-0.3131;-49.1968;34.8100 
1811.594;0.0015;0.0137;0.9902;0.0000;0.2441;0.2441;0.8569;-0.3076;-49.1968;34.8100 
1811.594;0.0015;0.0137;0.9902;0.0000;0.2441;0.2441;0.8569;-0.3076;-49.1968;34.8100 
1811.594;0.0049;0.0181;0.9922;0.0000;0.1221;0.3662;0.8569;-0.3076;-49.1913;34.7800 
1811.594;0.0049;0.0181;0.9922;0.0000;0.1221;0.3662;0.8624;-0.3076;-49.1913;34.7800 
1811.594;0.0049;0.0181;0.9922;0.0000;0.1221;0.3662;0.8624;-0.3076;-49.1913;34.9300 
1811.594;0.0049;0.0181;0.9922;0.0000;0.1221;0.3662;0.8624;-0.3076;-49.1858;34.9300 
1811.594;0.0049;0.0181;0.9922;0.0000;0.1221;0.3662;0.8624;-0.3021;-49.1858;34.9300 
1811.594;0.0049;0.0181;0.9922;0.0000;0.1221;0.3662;0.8624;-0.3021;-49.1803;34.9300 
1811.624;0.0049;0.0181;0.9922;0.0000;0.1221;0.3662;0.8624;-0.3021;-49.1748;34.9000 
1811.624;0.0049;0.0181;0.9922;0.0000;0.1221;0.3662;0.8624;-0.3021;-49.1748;34.9000 
1811.624;0.0034;0.0146;0.9917;0.0000;0.0610;0.3662;0.8624;-0.3021;-49.1693;34.8900 
1811.624;0.0034;0.0146;0.9917;0.0000;0.0610;0.3662;0.8624;-0.3021;-49.1638;34.8900 
1811.624;0.0034;0.0146;0.9917;0.0000;0.0610;0.3662;0.8624;-0.3021;-49.1638;34.9300 
1811.624;0.0034;0.0146;0.9917;0.0000;0.0610;0.3662;0.8624;-0.3021;-49.1583;34.9300 
1811.654;0.0034;0.0146;0.9917;0.0000;0.0610;0.3662;0.8624;-0.3021;-49.1583;34.9300 
1811.654;0.0034;0.0146;0.9917;0.0000;0.0610;0.3662;0.8624;-0.2966;-49.1528;34.9200 
1811.664;0.0034;0.0146;0.9917;0.0000;0.0610;0.3662;0.8624;-0.2966;-49.1528;34.9200 
1811.664;0.0034;0.0146;0.9917;0.0000;0.0610;0.3662;0.8624;-0.2966;-49.1473;34.8800 
1811.664;0.0063;0.0137;0.9937;0.0000;0.0000;0.2441;0.8624;-0.2966;-49.1473;34.8800 
1811.664;0.0063;0.0137;0.9937;0.0000;0.0000;0.2441;0.8624;-0.2966;-49.1473;34.8600 
1811.664;0.0063;0.0137;0.9937;0.0000;0.0000;0.2441;0.8624;-0.2966;-49.1473;34.8600 
1811.664;0.0063;0.0137;0.9937;0.0000;0.0000;0.2441;0.8624;-0.2966;-49.1418;34.8400 
1811.664;0.0063;0.0137;0.9937;0.0000;0.0000;0.2441;0.8624;-0.2966;-49.1418;34.8400 
1811.664;0.0063;0.0137;0.9937;0.0000;0.0000;0.2441;0.8624;-0.2966;-49.1418;34.8500 
1811.684;0.0063;0.0137;0.9937;0.0000;0.0000;0.2441;0.8624;-0.2966;-49.1418;34.8500 
1811.684;0.0063;0.0137;0.9937;0.0000;0.0000;0.2441;0.8624;-0.2966;-49.1418;34.9100 
1811.784;0.0054;0.0166;0.9922;0.0000;0.0000;0.1221;0.8624;-0.2966;-49.1418;34.9100 
1811.784;0.0054;0.0166;0.9922;0.0000;0.0000;0.1221;0.8624;-0.3021;-49.1418;34.9000 
1811.794;0.0054;0.0166;0.9922;0.0000;0.0000;0.1221;0.8624;-0.3021;-49.1418;34.9000 
1811.794;0.0054;0.0166;0.9922;0.0000;0.0000;0.1221;0.8624;-0.3021;-49.1364;34.8700 
1811.794;0.0054;0.0166;0.9922;0.0000;0.0000;0.1221;0.8624;-0.3021;-49.1364;34.8700 
1811.794;0.0054;0.0166;0.9922;0.0000;0.0000;0.1221;0.8624;-0.3021;-49.1364;34.8700 
1811.794;0.0054;0.0166;0.9922;0.0000;0.0000;0.1221;0.8624;-0.3021;-49.1364;34.9100 
1811.794;0.0054;0.0166;0.9922;0.0000;0.0000;0.1221;0.8624;-0.3021;-49.1364;34.9100 
1811.794;0.0059;0.0132;0.9932;0.0000;0.0610;0.0610;0.8624;-0.3021;-49.1364;34.8800 
1811.794;0.0059;0.0132;0.9932;0.0000;0.0610;0.0610;0.8624;-0.2966;-49.1364;34.8800 
1811.794;0.0059;0.0132;0.9932;0.0000;0.0610;0.0610;0.8624;-0.2966;-49.1364;34.8900 
1811.794;0.0059;0.0132;0.9932;0.0000;0.0610;0.0610;0.8624;-0.2966;-49.1364;34.8900 
1811.794;0.0059;0.0132;0.9932;0.0000;0.0610;0.0610;0.8624;-0.2966;-49.1364;34.8700 
1811.794;0.0059;0.0132;0.9932;0.0000;0.0610;0.0610;0.8624;-0.2966;-49.1364;34.8700 
1811.794;0.0059;0.0132;0.9932;0.0000;0.0610;0.0610;0.8624;-0.2966;-49.1309;34.8700 
1811.794;0.0059;0.0132;0.9932;0.0000;0.0610;0.0610;0.8624;-0.2966;-49.1309;34.8700 
1811.794;0.0039;0.0132;0.9917;0.0610;0.1221;0.0000;0.8624;-0.2966;-49.1254;34.8400 
1811.794;0.0039;0.0132;0.9917;0.0610;0.1221;0.0000;0.8624;-0.2966;-49.1254;34.8400 
1811.794;0.0039;0.0132;0.9917;0.0610;0.1221;0.0000;0.8624;-0.2966;-49.1254;34.9000 
1811.794;0.0039;0.0132;0.9917;0.0610;0.1221;0.0000;0.8624;-0.2966;-49.1254;34.9000 
1811.794;0.0039;0.0132;0.9917;0.0610;0.1221;0.0000;0.8624;-0.2966;-49.1254;34.8700 
1811.794;0.0039;0.0132;0.9917;0.0610;0.1221;0.0000;0.8624;-0.2911;-49.1254;34.8700 
1811.794;0.0039;0.0132;0.9917;0.0610;0.1221;0.0000;0.8624;-0.2911;-49.1199;34.8700 
1811.804;0.0039;0.0132;0.9917;0.0610;0.1221;0.0000;0.8624;-0.2911;-49.1199;34.8800 
1811.804;0.0044;0.0166;0.9922;0.0610;0.1221;0.0000;0.8624;-0.2911;-49.1199;34.8800 
1811.814;0.0044;0.0166;0.9922;0.0610;0.1221;0.0000;0.8624;-0.2911;-49.1199;34.8700 
1811.814;0.0044;0.0166;0.9922;0.0610;0.1221;0.0000;0.8624;-0.2911;-49.1199;34.8700 
1811.824;0.0044;0.0166;0.9922;0.0610;0.1221;0.0000;0.8624;-0.2911;-49.1199;34.8900 
1811.824;0.0044;0.0166;0.9922;0.0610;0.1221;0.0000;0.8624;-0.2856;-49.1199;34.8900 
1811.833;0.0044;0.0166;0.9922;0.0610;0.1221;0.0000;0.8624;-0.2856;-49.1199;34.8600 
1811.833;0.0044;0.0166;0.9922;0.0610;0.1221;0.0000;0.8679;-0.2856;-49.1254;34.8600 
1811.843;0.0044;0.0166;0.9922;0.0610;0.1221;0.0000;0.8679;-0.2856;-49.1254;34.8300 
1811.843;0.0034;0.0137;0.9917;0.0610;0.0610;0.0000;0.8679;-0.2856;-49.1254;34.8300 
1811.863;0.0034;0.0137;0.9917;0.0610;0.0610;0.0000;0.8679;-0.2856;-49.1254;34.8300 
1811.863;0.0034;0.0137;0.9917;0.0610;0.0610;0.0000;0.8679;-0.2856;-49.1254;34.8300 
1811.863;0.0034;0.0137;0.9917;0.0610;0.0610;0.0000;0.8679;-0.2856;-49.1254;34.9100 
1811.863;0.0034;0.0137;0.9917;0.0610;0.0610;0.0000;0.8679;-0.2802;-49.1309;34.9100 
1811.883;0.0034;0.0137;0.9917;0.0610;0.0610;0.0000;0.8679;-0.2802;-49.1309;34.8700 
1811.883;0.0034;0.0137;0.9917;0.0610;0.0610;0.0000;0.8679;-0.2802;-49.1309;34.8700 
1812.003;0.0034;0.0137;0.9917;0.0610;0.0610;0.0000;0.8679;-0.2802;-49.1309;34.8700 
1812.003;0.0044;0.0142;0.9927;0.0610;0.0610;0.0000;0.8679;-0.2802;-49.1309;34.9000 
1812.003;0.0044;0.0142;0.9927;0.0610;0.0610;0.0000;0.8679;-0.2802;-49.1309;34.9000 
1812.003;0.0044;0.0142;0.9927;0.0610;0.0610;0.0000;0.8679;-0.2802;-49.1309;34.9000 
1812.003;0.0044;0.0142;0.9927;0.0610;0.0610;0.0000;0.8679;-0.2802;-49.1309;34.9000 
1812.003;0.0044;0.0142;0.9927;0.0610;0.0610;0.0000;0.8679;-0.2802;-49.1309;34.8700 
1812.003;0.0044;0.0142;0.9927;0.0610;0.0610;0.0000;0.8679;-0.2802;-49.1309;34.8700 
1812.013;0.0044;0.0142;0.9927;0.0610;0.0610;0.0000;0.8679;-0.2802;-49.1364;34.9300 
1812.013;0.0044;0.0142;0.9927;0.0610;0.0610;0.0000;0.8679;-0.2802;-49.1364;34.9300 
1812.013;0.0044;0.0161;0.9917;0.0000;0.0000;0.0000;0.8679;-0.2802;-49.1364;34.8800 
1812.013;0.0044;0.0161;0.9917;0.0000;0.0000;0.0000;0.8679;-0.2802;-49.1364;34.8800 
1812.013;0.0044;0.0161;0.9917;0.0000;0.0000;0.0000;0.8679;-0.2802;-49.1418;34.8900 
1812.013;0.0044;0.0161;0.9917;0.0000;0.0000;0.0000;0.8679;-0.2802;-49.1418;34.8900 
1812.013;0.0044;0.0161;0.9917;0.0000;0.0000;0.0000;0.8679;-0.2802;-49.1418;34.8400 
1812.013;0.0044;0.0161;0.9917;0.0000;0.0000;0.0000;0.8679;-0.2802;-49.1473;34.8400 
1812.013;0.0044;0.0161;0.9917;0.0000;0.0000;0.0000;0.8679;-0.2747;-49.1473;34.8400 
1812.013;0.0044;0.0161;0.9917;0.0000;0.0000;0.0000;0.8679;-0.2747;-49.1473;34.8000 
1812.013;0.0059;0.0137;0.9927;0.0000;0.0000;0.0000;0.8679;-0.2802;-49.1528;34.8000 
1812.013;0.0059;0.0137;0.9927;0.0000;0.0000;0.0000;0.8679;-0.2802;-49.1528;34.8800 
1812.013;0.0059;0.0137;0.9927;0.0000;0.0000;0.0000;0.8679;-0.2802;-49.1528;34.8800 
1812.013;0.0059;0.0137;0.9927;0.0000;0.0000;0.0000;0.8679;-0.2802;-49.1583;34.8800 
1812.013;0.0059;0.0137;0.9927;0.0000;0.0000;0.0000;0.8679;-0.2802;-49.1583;34.8800 
1812.013;0.0059;0.0137;0.9927;0.0000;0.0000;0.0000;0.8679;-0.2802;-49.1583;34.7800 
1812.013;0.0059;0.0137;0.9927;0.0000;0.0000;0.0000;0.8679;-0.2802;-49.1583;34.7800 
1812.013;0.0059;0.0137;0.9927;0.0000;0.0000;0.0000;0.8679;-0.2802;-49.1638;34.8100 
1812.013;0.0049;0.0146;0.9922;0.0000;0.0000;0.0000;0.8679;-0.2802;-49.1638;34.8100 
1812.013;0.0049;0.0146;0.9922;0.0000;0.0000;0.0000;0.8679;-0.2802;-49.1638;34.9600 
1812.023;0.0049;0.0146;0.9922;0.0000;0.0000;0.0000;0.8679;-0.2802;-49.1693;34.9600 
1812.023;0.0049;0.0146;0.9922;0.0000;0.0000;0.0000;0.8679;-0.2802;-49.1693;34.9000 
1812.033;0.0049;0.0146;0.9922;0.0000;0.0000;0.0000;0.8679;-0.2802;-49.1748;34.9000 
1812.033;0.0049;0.0146;0.9922;0.0000;0.0000;0.0000;0.8679;-0.2802;-49.1748;34.9200 
1812.033;0.0049;0.0146;0.9922;0.0000;0.0000;0.0000;0.8679;-0.2802;-49.1748;34.9200 
1812.033;0.0049;0.0146;0.9922;0.0000;0.0000;0.0000;0.8679;-0.2802;-49.1803;34.9200 
1812.043;0.0063;0.0161;0.9932;0.0000;0.0000;0.0000;0.8679;-0.2802;-49.1803;34.9100 
1812.043;0.0063;0.0161;0.9932;0.0000;0.0000;0.0000;0.8679;-0.2802;-49.1803;34.9100 
1812.053;0.0063;0.0161;0.9932;0.0000;0.0000;0.0000;0.8679;-0.2802;-49.1803;34.8700 
1812.053;0.0063;0.0161;0.9932;0.0000;0.0000;0.0000;0.8679;-0.2802;-49.1803;34.8700 
1812.143;0.0063;0.0161;0.9932;0.0000;0.0000;0.0000;0.8679;-0.2802;-49.1803;34.8700 
1812.143;0.0063;0.0161;0.9932;0.0000;0.0000;0.0000;0.8679;-0.2802;-49.1803;34.8700 
1812.143;0.0063;0.0161;0.9932;0.0000;0.0000;0.0000;0.8679;-0.2802;-49.1803;34.8700 
1812.153;0.0063;0.0161;0.9932;0.0000;0.0000;0.0000;0.8679;-0.2802;-49.1803;34.8700 
1812.153;0.0054;0.0137;0.9932;0.0000;0.0000;0.0000;0.8679;-0.2802;-49.1748;34.8700 
1812.153;0.0054;0.0137;0.9932;0.0000;0.0000;0.0000;0.8679;-0.2802;-49.1748;34.8700 
1812.153;0.0054;0.0137;0.9932;0.0000;0.0000;0.0000;0.8679;-0.2802;-49.1748;34.8700 
1812.153;0.0054;0.0137;0.9932;0.0000;0.0000;0.0000;0.8679;-0.2802;-49.1748;34.8700 
1812.153;0.0054;0.0137;0.9932;0.0000;0.0000;0.0000;0.8679;-0.2802;-49.1748;34.9200 
1812.153;0.0054;0.0137;0.9932;0.0000;0.0000;0.0000;0.8679;-0.2802;-49.1693;34.9200 
1812.153;0.0054;0.0137;0.9932;0.0000;0.0000;0.0000;0.8679;-0.2802;-49.1693;34.9100 
1812.153;0.0054;0.0137;0.9932;0.0000;0.0000;0.0000;0.8679;-0.2802;-49.1693;34.9100 
1812.153;0.0059;0.0146;0.9937;0.0000;0.0000;0.0000;0.8679;-0.2802;-49.1693;34.9100 
1812.153;0.0059;0.0146;0.9937;0.0000;0.0000;0.0000;0.8679;-0.2802;-49.1693;34.8700 
1812.153;0.0059;0.0146;0.9937;0.0000;0.0000;0.0000;0.8679;-0.2802;-49.1638;34.8700 
1812.153;0.0059;0.0146;0.9937;0.0000;0.0000;0.0000;0.8679;-0.2802;-49.1638;34.9600 
1812.153;0.0059;0.0146;0.9937;0.0000;0.0000;0.0000;0.8679;-0.2802;-49.1583;34.9600 
1812.153;0.0059;0.0146;0.9937;0.0000;0.0000;0.0000;0.8679;-0.2802;-49.1583;34.9000 
1812.153;0.0059;0.0146;0.9937;0.0000;0.0000;0.0000;0.8679;-0.2802;-49.1583;34.9000 
1812.163;0.0059;0.0146;0.9937;0.0000;0.0000;0.0000;0.8679;-0.2802;-49.1583;34.8500 
1812.163;0.0054;0.0156;0.9932;0.0000;0.0000;0.0000;0.8679;-0.2802;-49.1583;34.8500 
1812.173;0.0054;0.0156;0.9932;0.0000;0.0000;0.0000;0.8679;-0.2802;-49.1583;34.8800 
1812.173;0.0054;0.0156;0.9932;0.0000;0.0000;0.0000;0.8679;-0.2802;-49.1583;34.8800 
1812.183;0.0054;0.0156;0.9932;0.0000;0.0000;0.0000;0.8679;-0.2802;-49.1583;34.8400 
1812.183;0.0054;0.0156;0.9932;0.0000;0.0000;0.0000;0.8679;-0.2802;-49.1583;34.8400 
1812.193;0.0054;0.0156;0.9932;0.0000;0.0000;0.0000;0.8679;-0.2856;-49.1583;34.8800 
1812.193;0.0054;0.0156;0.9932;0.0000;0.0000;0.0000;0.8679;-0.2856;-49.1583;34.8800 
1812.203;0.0054;0.0156;0.9932;0.0000;0.0000;0.0000;0.8679;-0.2856;-49.1583;34.8300 
1812.203;0.0049;0.0142;0.9927;0.0000;0.0000;0.0000;0.8679;-0.2856;-49.1583;34.8300 
1812.223;0.0049;0.0142;0.9927;0.0000;0.0000;0.0000;0.8679;-0.2856;-49.1583;34.8300 
1812.223;0.0049;0.0142;0.9927;0.0000;0.0000;0.0000;0.8679;-0.2856;-49.1583;34.9200 
1812.223;0.0049;0.0142;0.9927;0.0000;0.0000;0.0000;0.8679;-0.2856;-49.1583;34.9200 
1812.223;0.0049;0.0142;0.9927;0.0000;0.0000;0.0000;0.8679;-0.2856;-49.1638;34.8500 
1812.243;0.0049;0.0142;0.9927;0.0000;0.0000;0.0000;0.8679;-0.2856;-49.1638;34.8500 
1812.243;0.0049;0.0142;0.9927;0.0000;0.0000;0.0000;0.8679;-0.2856;-49.1638;34.8600 
1812.243;0.0049;0.0142;0.9927;0.0000;0.0000;0.0000;0.8679;-0.2856;-49.1638;34.8600 
1812.243;0.0049;0.0156;0.9927;0.0000;0.0000;0.0000;0.8679;-0.2856;-49.1693;34.9200 
1812.243;0.0049;0.0156;0.9927;0.0000;0.0000;0.0000;0.8679;-0.2856;-49.1693;34.9200 
1812.263;0.0049;0.0156;0.9927;0.0000;0.0000;0.0000;0.8679;-0.2856;-49.1693;34.8600 
1812.263;0.0049;0.0156;0.9927;0.0000;0.0000;0.0000;0.8679;-0.2856;-49.1748;34.8600 
1812.273;0.0049;0.0156;0.9927;0.0000;0.0000;0.0000;0.8679;-0.2856;-49.1748;34.8900 
1812.273;0.0049;0.0156;0.9927;0.0000;0.0000;0.0000;0.8679;-0.2856;-49.1803;34.8900 
1812.283;0.0049;0.0156;0.9927;0.0000;0.0000;0.0000;0.8679;-0.2802;-49.1803;34.9200 
1812.283;0.0049;0.0156;0.9927;0.0000;0.0000;0.0000;0.8679;-0.2802;-49.1803;34.9200 
1812.293;0.0054;0.0156;0.9922;0.0000;0.0000;0.0000;0.8679;-0.2856;-49.1858;34.9200 
1812.293;0.0054;0.0156;0.9922;0.0000;0.0000;0.0000;0.8679;-0.2856;-49.1913;34.8800 
1812.303;0.0054;0.0156;0.9922;0.0000;0.0000;0.0000;0.8679;-0.2856;-49.1913;34.8800 
1812.303;0.0054;0.0156;0.9922;0.0000;0.0000;0.0000;0.8679;-0.2856;-49.1913;34.9000 
1812.313;0.0054;0.0156;0.9922;0.0000;0.0000;0.0000;0.8679;-0.2856;-49.1913;34.9000 
1812.313;0.0054;0.0156;0.9922;0.0000;0.0000;0.0000;0.8679;-0.2856;-49.1913;34.9100 
1812.313;0.0054;0.0156;0.9922;0.0000;0.0000;0.0000;0.8679;-0.2856;-49.1913;34.9100 
1812.313;0.0054;0.0156;0.9922;0.0000;0.0000;0.0000;0.8679;-0.2856;-49.1913;34.8900 
1812.403;0.0054;0.0142;0.9927;0.0000;0.0000;0.0000;0.8679;-0.2856;-49.1913;34.8900 
1812.403;0.0054;0.0142;0.9927;0.0000;0.0000;0.0000;0.8679;-0.2856;-49.1913;34.8600 
1812.423;0.0054;0.0142;0.9927;0.0000;0.0000;0.0000;0.8679;-0.2856;-49.1858;34.8600 
1812.423;0.0054;0.0142;0.9927;0.0000;0.0000;0.0000;0.8679;-0.2856;-49.1858;34.8800 
1812.423;0.0054;0.0142;0.9927;0.0000;0.0000;0.0000;0.8679;-0.2856;-49.1803;34.8800 
1812.423;0.0054;0.0142;0.9927;0.0000;0.0000;0.0000;0.8679;-0.2856;-49.1803;34.8500 
1812.423;0.0054;0.0142;0.9927;0.0000;0.0000;0.0000;0.8679;-0.2856;-49.1748;34.8500 
1812.423;0.0054;0.0142;0.9927;0.0000;0.0000;0.0000;0.8679;-0.2856;-49.1748;34.8400 
1812.423;0.0049;0.0146;0.9927;0.0000;0.0000;0.0000;0.8679;-0.2856;-49.1748;34.8400 
1812.423;0.0049;0.0146;0.9927;0.0000;0.0000;0.0000;0.8679;-0.2856;-49.1748;34.8400 
1812.423;0.0049;0.0146;0.9927;0.0000;0.0000;0.0000;0.8679;-0.2856;-49.1748;34.8900 
1812.423;0.0049;0.0146;0.9927;0.0000;0.0000;0.0000;0.8679;-0.2856;-49.1748;34.8900 
1812.423;0.0049;0.0146;0.9927;0.0000;0.0000;0.0000;0.8679;-0.2856;-49.1748;34.9100 
1812.423;0.0049;0.0146;0.9927;0.0000;0.0000;0.0000;0.8679;-0.2856;-49.1748;34.9100 
1812.423;0.0049;0.0146;0.9927;0.0000;0.0000;0.0000;0.8679;-0.2856;-49.1748;34.8900 
1812.423;0.0049;0.0146;0.9927;0.0000;0.0000;0.0000;0.8679;-0.2856;-49.1748;34.8900 
1812.423;0.0049;0.0156;0.9927;0.0000;0.0000;0.0000;0.8679;-0.2856;-49.1693;34.8800 
1812.423;0.0049;0.0156;0.9927;0.0000;0.0000;0.0000;0.8679;-0.2856;-49.1693;34.8800 
1812.423;0.0049;0.0156;0.9927;0.0000;0.0000;0.0000;0.8679;-0.2856;-49.1693;34.8900 
1812.423;0.0049;0.0156;0.9927;0.0000;0.0000;0.0000;0.8679;-0.2856;-49.1693;34.8900 
1812.423;0.0049;0.0156;0.9927;0.0000;0.0000;0.0000;0.8679;-0.2856;-49.1693;34.8500 
1812.443;0.0049;0.0156;0.9927;0.0000;0.0000;0.0000;0.8679;-0.2856;-49.1693;34.8500 
1812.443;0.0049;0.0156;0.9927;0.0000;0.0000;0.0000;0.8679;-0.2856;-49.1638;34.8400 
1812.443;0.0044;0.0142;0.9927;0.0000;0.0000;0.0000;0.8679;-0.2856;-49.1638;34.8400 
1812.443;0.0044;0.0142;0.9927;0.0000;0.0000;0.0000;0.8679;-0.2856;-49.1638;34.9000 
1812.453;0.0044;0.0142;0.9927;0.0000;0.0000;0.0000;0.8679;-0.2856;-49.1638;34.9000 
1812.453;0.0044;0.0142;0.9927;0.0000;0.0000;0.0000;0.8679;-0.2856;-49.1638;34.9000 
1812.473;0.0044;0.0142;0.9927;0.0000;0.0000;0.0000;0.8679;-0.2856;-49.1638;34.8800 
1812.473;0.0044;0.0142;0.9927;0.0000;0.0000;0.0000;0.8679;-0.2856;-49.1638;34.8800 
1812.483;0.0044;0.0142;0.9927;0.0000;0.0000;0.0000;0.8679;-0.2856;-49.1638;34.8400 
1812.483;0.0044;0.0142;0.9927;0.0000;0.0000;0.0000;0.8679;-0.2856;-49.1638;34.8400 
1812.483;0.0044;0.0156;0.9922;0.0000;0.0000;0.0000;0.8679;-0.2802;-49.1638;34.9100 
1812.483;0.0044;0.0156;0.9922;0.0000;0.0000;0.0000;0.8679;-0.2802;-49.1638;34.9100 
1812.493;0.0044;0.0156;0.9922;0.0000;0.0000;0.0000;0.8679;-0.2802;-49.1638;34.8500 
1812.493;0.0044;0.0156;0.9922;0.0000;0.0000;0.0000;0.8679;-0.2802;-49.1638;34.8500 
1812.503;0.0044;0.0156;0.9922;0.0000;0.0000;0.0000;0.8679;-0.2802;-49.1638;34.9100 
1812.503;0.0044;0.0156;0.9922;0.0000;0.0000;0.0000;0.8679;-0.2802;-49.1693;34.9100 
1812.513;0.0044;0.0156;0.9922;0.0000;0.0000;0.0000;0.8679;-0.2802;-49.1693;34.9100 
1812.513;0.0044;0.0156;0.9922;0.0000;0.0000;0.0000;0.8679;-0.2802;-49.1693;34.9100 
1812.603;0.0044;0.0151;0.9917;0.0000;0.0000;0.0000;0.8679;-0.2802;-49.1693;34.9400 
1812.603;0.0044;0.0151;0.9917;0.0000;0.0000;0.0000;0.8679;-0.2802;-49.1693;34.9400 
1812.613;0.0044;0.0151;0.9917;0.0000;0.0000;0.0000;0.8679;-0.2802;-49.1693;34.8600 
1812.613;0.0044;0.0151;0.9917;0.0000;0.0000;0.0000;0.8679;-0.2802;-49.1638;34.8600 
1812.613;0.0044;0.0151;0.9917;0.0000;0.0000;0.0000;0.8679;-0.2802;-49.1638;34.8600 
1812.613;0.0044;0.0151;0.9917;0.0000;0.0000;0.0000;0.8679;-0.2802;-49.1638;34.8500 
1812.613;0.0044;0.0151;0.9917;0.0000;0.0000;0.0000;0.8679;-0.2802;-49.1638;34.8500 
1812.613;0.0044;0.0151;0.9917;0.0000;0.0000;0.0000;0.8679;-0.2802;-49.1638;34.9000 
1812.613;0.0049;0.0146;0.9917;0.0610;0.0000;0.0000;0.8679;-0.2802;-49.1638;34.9000 
1812.613;0.0049;0.0146;0.9917;0.0610;0.0000;0.0000;0.8679;-0.2802;-49.1638;34.8600 
1812.613;0.0049;0.0146;0.9917;0.0610;0.0000;0.0000;0.8679;-0.2802;-49.1638;34.8600 
1812.613;0.0049;0.0146;0.9917;0.0610;0.0000;0.0000;0.8679;-0.2802;-49.1638;34.8500 
1812.613;0.0049;0.0146;0.9917;0.0610;0.0000;0.0000;0.8679;-0.2802;-49.1638;34.8500 
1812.613;0.0049;0.0146;0.9917;0.0610;0.0000;0.0000;0.8679;-0.2802;-49.1638;34.9000 
1812.613;0.0049;0.0146;0.9917;0.0610;0.0000;0.0000;0.8679;-0.2802;-49.1638;34.9000 
1812.613;0.0049;0.0146;0.9917;0.0610;0.0000;0.0000;0.8679;-0.2802;-49.1638;34.9200 
1812.613;0.0049;0.0151;0.9917;0.0000;0.0000;0.0000;0.8679;-0.2802;-49.1638;34.9200 
1812.613;0.0049;0.0151;0.9917;0.0000;0.0000;0.0000;0.8679;-0.2802;-49.1638;34.9100 
1812.613;0.0049;0.0151;0.9917;0.0000;0.0000;0.0000;0.8679;-0.2802;-49.1638;34.9100 
1812.623;0.0049;0.0151;0.9917;0.0000;0.0000;0.0000;0.8679;-0.2802;-49.1638;34.9100 
1812.623;0.0049;0.0151;0.9917;0.0000;0.0000;0.0000;0.8679;-0.2802;-49.1638;34.8200 
1812.623;0.0049;0.0151;0.9917;0.0000;0.0000;0.0000;0.8679;-0.2802;-49.1638;34.8200 
1812.623;0.0049;0.0151;0.9917;0.0000;0.0000;0.0000;0.8679;-0.2802;-49.1638;34.8800 
1812.633;0.0049;0.0151;0.9917;0.0000;0.0000;0.0000;0.8679;-0.2802;-49.1638;34.8800 
1812.633;0.0049;0.0151;0.9922;0.0000;0.0000;0.0000;0.8679;-0.2802;-49.1638;34.8200 
1812.643;0.0049;0.0151;0.9922;0.0000;0.0000;0.0000;0.8679;-0.2802;-49.1583;34.8200 
1812.643;0.0049;0.0151;0.9922;0.0000;0.0000;0.0000;0.8679;-0.2802;-49.1583;34.8500 
1812.653;0.0049;0.0151;0.9922;0.0000;0.0000;0.0000;0.8679;-0.2802;-49.1583;34.8500 
1812.653;0.0049;0.0151;0.9922;0.0000;0.0000;0.0000;0.8679;-0.2802;-49.1528;34.9000 
1812.663;0.0049;0.0151;0.9922;0.0000;0.0000;0.0000;0.8679;-0.2802;-49.1528;34.9000 
1812.663;0.0049;0.0151;0.9922;0.0000;0.0000;0.0000;0.8679;-0.2802;-49.1528;34.8400 
1812.683;0.0049;0.0151;0.9922;0.0000;0.0000;0.0000;0.8679;-0.2802;-49.1528;34.8400 
1812.683;0.0044;0.0142;0.9922;0.0000;0.0000;0.0000;0.8679;-0.2802;-49.1528;34.8300 
1812.693;0.0044;0.0142;0.9922;0.0000;0.0000;0.0000;0.8679;-0.2802;-49.1528;34.8300 
1812.693;0.0044;0.0142;0.9922;0.0000;0.0000;0.0000;0.8679;-0.2802;-49.1583;34.9100 
1812.713;0.0044;0.0142;0.9922;0.0000;0.0000;0.0000;0.8679;-0.2802;-49.1583;34.9100 
1812.813;0.0044;0.0142;0.9922;0.0000;0.0000;0.0000;0.8679;-0.2802;-49.1583;34.9100 
1812.813;0.0044;0.0142;0.9922;0.0000;0.0000;0.0000;0.8679;-0.2802;-49.1583;34.8800 
1812.813;0.0044;0.0142;0.9922;0.0000;0.0000;0.0000;0.8679;-0.2802;-49.1583;34.8800 
1812.813;0.0044;0.0142;0.9922;0.0000;0.0000;0.0000;0.8679;-0.2802;-49.1583;34.8500 
1812.813;0.0049;0.0151;0.9927;0.0000;0.0000;0.0000;0.8679;-0.2802;-49.1583;34.8500 
1812.813;0.0049;0.0151;0.9927;0.0000;0.0000;0.0000;0.8679;-0.2802;-49.1583;34.8800 
1812.823;0.0049;0.0151;0.9927;0.0000;0.0000;0.0000;0.8679;-0.2802;-49.1583;34.8800 
1812.823;0.0049;0.0151;0.9927;0.0000;0.0000;0.0000;0.8679;-0.2802;-49.1583;34.8100 
1812.823;0.0049;0.0151;0.9927;0.0000;0.0000;0.0000;0.8679;-0.2802;-49.1583;34.8100 
1812.823;0.0049;0.0151;0.9927;0.0000;0.0000;0.0000;0.8679;-0.2802;-49.1583;34.9000 
1812.823;0.0049;0.0151;0.9927;0.0000;0.0000;0.0000;0.8679;-0.2802;-49.1583;34.9000 
1812.823;0.0049;0.0151;0.9927;0.0000;0.0000;0.0000;0.8679;-0.2802;-49.1583;34.8300 
1812.823;0.0044;0.0151;0.9927;0.0000;0.0000;0.0000;0.8679;-0.2802;-49.1583;34.8300 
1812.823;0.0044;0.0151;0.9927;0.0000;0.0000;0.0000;0.8679;-0.2802;-49.1583;34.8900 
1812.823;0.0044;0.0151;0.9927;0.0000;0.0000;0.0000;0.8679;-0.2802;-49.1583;34.8900 
1812.823;0.0044;0.0151;0.9927;0.0000;0.0000;0.0000;0.8679;-0.2802;-49.1638;34.8600 
1812.823;0.0044;0.0151;0.9927;0.0000;0.0000;0.0000;0.8679;-0.2802;-49.1638;34.8600 
1812.823;0.0044;0.0151;0.9927;0.0000;0.0000;0.0000;0.8679;-0.2802;-49.1638;34.8600 
1812.823;0.0044;0.0151;0.9927;0.0000;0.0000;0.0000;0.8679;-0.2802;-49.1693;34.8400 
1812.823;0.0044;0.0151;0.9927;0.0000;0.0000;0.0000;0.8679;-0.2802;-49.1693;34.8400 
1812.823;0.0049;0.0146;0.9932;0.0000;0.0000;0.0000;0.8679;-0.2802;-49.1693;34.8800 
1812.823;0.0049;0.0146;0.9932;0.0000;0.0000;0.0000;0.8679;-0.2802;-49.1693;34.8800 
1812.833;0.0049;0.0146;0.9932;0.0000;0.0000;0.0000;0.8679;-0.2802;-49.1693;34.8600 
1812.833;0.0049;0.0146;0.9932;0.0000;0.0000;0.0000;0.8679;-0.2802;-49.1638;34.8600 
1812.833;0.0049;0.0146;0.9932;0.0000;0.0000;0.0000;0.8679;-0.2802;-49.1638;34.8400 
1812.833;0.0049;0.0146;0.9932;0.0000;0.0000;0.0000;0.8679;-0.2802;-49.1638;34.8400 
1812.843;0.0049;0.0146;0.9932;0.0000;0.0000;0.0000;0.8679;-0.2802;-49.1583;34.8500 
1812.843;0.0049;0.0146;0.9932;0.0000;0.0000;0.0000;0.8679;-0.2802;-49.1583;34.8500 
1812.843;0.0044;0.0156;0.9927;0.0000;0.0000;0.0000;0.8679;-0.2802;-49.1583;34.9600 
1812.863;0.0044;0.0156;0.9927;0.0000;0.0000;0.0000;0.8679;-0.2802;-49.1528;34.9600 
1812.863;0.0044;0.0156;0.9927;0.0000;0.0000;0.0000;0.8679;-0.2802;-49.1528;34.8500 
1812.863;0.0044;0.0156;0.9927;0.0000;0.0000;0.0000;0.8679;-0.2802;-49.1528;34.8500 
1812.863;0.0044;0.0156;0.9927;0.0000;0.0000;0.0000;0.8679;-0.2802;-49.1473;34.9000 
1812.883;0.0044;0.0156;0.9927;0.0000;0.0000;0.0000;0.8679;-0.2802;-49.1473;34.9000 
1812.883;0.0044;0.0156;0.9927;0.0000;0.0000;0.0000;0.8679;-0.2802;-49.1473;34.9000 
1812.903;0.0044;0.0156;0.9927;0.0000;0.0000;0.0000;0.8679;-0.2802;-49.1418;34.8600 
1812.903;0.0044;0.0161;0.9932;0.0000;0.0000;0.0000;0.8679;-0.2802;-49.1418;34.8600 
1812.913;0.0044;0.0161;0.9932;0.0000;0.0000;0.0000;0.8679;-0.2802;-49.1418;34.8300 
1812.913;0.0044;0.0161;0.9932;0.0000;0.0000;0.0000;0.8734;-0.2802;-49.1418;34.8300 
1812.913;0.0044;0.0161;0.9932;0.0000;0.0000;0.0000;0.8734;-0.2802;-49.1418;34.8900 
1812.913;0.0044;0.0161;0.9932;0.0000;0.0000;0.0000;0.8734;-0.2802;-49.1418;34.8900 
1812.923;0.0044;0.0161;0.9932;0.0000;0.0000;0.0000;0.8734;-0.2802;-49.1418;34.9400 
1812.923;0.0044;0.0161;0.9932;0.0000;0.0000;0.0000;0.8734;-0.2802;-49.1473;34.9400 
1812.923;0.0044;0.0161;0.9932;0.0000;0.0000;0.0000;0.8734;-0.2802;-49.1473;34.8800 
1812.923;0.0044;0.0151;0.9932;0.0000;0.0000;0.0000;0.8734;-0.2802;-49.1473;34.8800 
1813.013;0.0044;0.0151;0.9932;0.0000;0.0000;0.0000;0.8734;-0.2802;-49.1473;34.9500 
1813.013;0.0044;0.0151;0.9932;0.0000;0.0000;0.0000;0.8734;-0.2802;-49.1528;34.9500 
1813.023;0.0044;0.0151;0.9932;0.0000;0.0000;0.0000;0.8734;-0.2802;-49.1528;34.8600 
1813.023;0.0044;0.0151;0.9932;0.0000;0.0000;0.0000;0.8734;-0.2802;-49.1528;34.8600 
1813.023;0.0044;0.0151;0.9932;0.0000;0.0000;0.0000;0.8734;-0.2802;-49.1583;34.8600 
1813.023;0.0044;0.0151;0.9932;0.0000;0.0000;0.0000;0.8734;-0.2802;-49.1583;34.9200 
1813.023;0.0044;0.0151;0.9932;0.0000;0.0000;0.0000;0.8734;-0.2802;-49.1638;34.9200 
1813.023;0.0044;0.0156;0.9927;0.0000;0.0000;0.0000;0.8734;-0.2802;-49.1638;34.8600 
1813.023;0.0044;0.0156;0.9927;0.0000;0.0000;0.0000;0.8734;-0.2802;-49.1638;34.8600 
1813.023;0.0044;0.0156;0.9927;0.0000;0.0000;0.0000;0.8734;-0.2802;-49.1693;34.8600 
1813.023;0.0044;0.0156;0.9927;0.0000;0.0000;0.0000;0.8734;-0.2747;-49.1693;34.8600 
1813.023;0.0044;0.0156;0.9927;0.0000;0.0000;0.0000;0.8734;-0.2747;-49.1693;34.9400 
1813.023;0.0044;0.0156;0.9927;0.0000;0.0000;0.0000;0.8734;-0.2747;-49.1693;34.9400 
1813.023;0.0044;0.0156;0.9927;0.0000;0.0000;0.0000;0.8734;-0.2747;-49.1693;34.8600 
1813.023;0.0044;0.0156;0.9927;0.0000;0.0000;0.0000;0.8734;-0.2747;-49.1748;34.8600 
1813.023;0.0044;0.0161;0.9932;0.0000;0.0000;0.0000;0.8734;-0.2747;-49.1748;34.9000 
1813.023;0.0044;0.0161;0.9932;0.0000;0.0000;0.0000;0.8734;-0.2747;-49.1748;34.9000 
1813.023;0.0044;0.0161;0.9932;0.0000;0.0000;0.0000;0.8734;-0.2747;-49.1803;34.9600 
1813.023;0.0044;0.0161;0.9932;0.0000;0.0000;0.0000;0.8734;-0.2747;-49.1803;34.9600 
1813.033;0.0044;0.0161;0.9932;0.0000;0.0000;0.0000;0.8734;-0.2747;-49.1803;34.8600 
1813.033;0.0044;0.0161;0.9932;0.0000;0.0000;0.0000;0.8734;-0.2747;-49.1858;34.8600 
1813.033;0.0044;0.0161;0.9932;0.0000;0.0000;0.0000;0.8734;-0.2747;-49.1858;34.8600 
1813.033;0.0044;0.0161;0.9932;0.0000;0.0000;0.0000;0.8734;-0.2747;-49.1858;34.8300 
1813.043;0.0049;0.0142;0.9932;0.0000;0.0000;0.0000;0.8734;-0.2747;-49.1858;34.8300 
1813.043;0.0049;0.0142;0.9932;0.0000;0.0000;0.0000;0.8734;-0.2747;-49.1858;34.9000 
1813.063;0.0049;0.0142;0.9932;0.0000;0.0000;0.0000;0.8734;-0.2747;-49.1913;34.9000 
1813.063;0.0049;0.0142;0.9932;0.0000;0.0000;0.0000;0.8734;-0.2747;-49.1913;34.9000 
1813.083;0.0049;0.0142;0.9932;0.0000;0.0000;0.0000;0.8734;-0.2747;-49.1913;34.9000 
1813.083;0.0049;0.0142;0.9932;0.0000;0.0000;0.0000;0.8734;-0.2747;-49.1913;34.8800 
1813.083;0.0049;0.0142;0.9932;0.0000;0.0000;0.0000;0.8734;-0.2747;-49.1913;34.8800 
1813.083;0.0049;0.0142;0.9932;0.0000;0.0000;0.0000;0.8734;-0.2747;-49.1858;34.8900 
1813.083;0.0054;0.0151;0.9927;0.0000;0.0000;0.0000;0.8734;-0.2747;-49.1858;34.8900 
1813.083;0.0054;0.0151;0.9927;0.0000;0.0000;0.0000;0.8734;-0.2747;-49.1858;34.9500 
1813.093;0.0054;0.0151;0.9927;0.0000;0.0000;0.0000;0.8734;-0.2747;-49.1858;34.9500 
1813.093;0.0054;0.0151;0.9927;0.0000;0.0000;0.0000;0.8734;-0.2747;-49.1858;34.8800 
1813.103;0.0054;0.0151;0.9927;0.0000;0.0000;0.0000;0.8734;-0.2747;-49.1858;34.8800 
1813.103;0.0054;0.0151;0.9927;0.0000;0.0000;0.0000;0.8734;-0.2747;-49.1858;34.8400 
1813.113;0.0054;0.0151;0.9927;0.0000;0.0000;0.0000;0.8734;-0.2747;-49.1858;34.8400 
1813.113;0.0054;0.0151;0.9927;0.0000;0.0000;0.0000;0.8734;-0.2747;-49.1913;34.8400 
1813.123;0.0059;0.0151;0.9927;0.0000;0.0000;0.0000;0.8734;-0.2747;-49.1913;34.8400 
1813.123;0.0059;0.0151;0.9927;0.0000;0.0000;0.0000;0.8734;-0.2802;-49.1913;34.8400 
1813.223;0.0059;0.0151;0.9927;0.0000;0.0000;0.0000;0.8734;-0.2802;-49.1913;34.9300 
1813.223;0.0059;0.0151;0.9927;0.0000;0.0000;0.0000;0.8734;-0.2802;-49.1913;34.9300 
1813.243;0.0059;0.0151;0.9927;0.0000;0.0000;0.0000;0.8734;-0.2802;-49.1913;34.8700 
1813.243;0.0059;0.0151;0.9927;0.0000;0.0000;0.0000;0.8734;-0.2802;-49.1913;34.8700 
1813.243;0.0059;0.0151;0.9927;0.0000;0.0000;0.0000;0.8734;-0.2802;-49.1913;34.9300 
1813.243;0.0059;0.0151;0.9927;0.0000;0.0000;0.0000;0.8734;-0.2802;-49.1913;34.9300 
1813.243;-0.0039;0.0190;0.9995;0.0000;0.0000;0.0000;0.8734;-0.2747;-49.1913;34.8700 
1813.243;-0.0039;0.0190;0.9995;0.0000;0.0000;0.0000;0.8734;-0.2747;-49.1913;34.8700 
1813.243;-0.0039;0.0190;0.9995;0.0000;0.0000;0.0000;0.8734;-0.2747;-49.1858;34.8000 
1813.243;-0.0039;0.0190;0.9995;0.0000;0.0000;0.0000;0.8734;-0.2747;-49.1858;34.8000 
1813.243;-0.0039;0.0190;0.9995;0.0000;0.0000;0.0000;0.8789;-0.2692;-49.1858;34.9100 
1813.243;-0.0039;0.0190;0.9995;0.0000;0.0000;0.0000;0.8789;-0.2692;-49.1858;34.9100 
1813.243;-0.0039;0.0190;0.9995;0.0000;0.0000;0.0000;0.8789;-0.2692;-49.1858;34.9000 
1813.243;-0.0039;0.0190;0.9995;0.0000;0.0000;0.0000;0.8789;-0.2692;-49.1858;34.9000 
1813.243;-0.3252;0.0586;1.0400;0.0000;0.0000;0.0000;0.8844;-0.2142;-49.1803;34.9000 
1813.243;-0.3252;0.0586;1.0400;0.0000;0.0000;0.0000;0.8899;-0.1593;-49.1803;34.9000 
1813.243;-0.3252;0.0586;1.0400;0.0000;0.0000;0.0000;0.8954;-0.1099;-49.1748;34.9000 
1813.243;-0.3252;0.0586;1.0400;0.0000;0.0000;0.0000;0.9064;-0.0549;-49.1693;34.8300 
1813.243;-0.3252;0.0586;1.0400;0.0000;0.0000;0.0000;0.9119;-0.0055;-49.1693;34.8300 
1813.243;-0.3252;0.0586;1.0400;0.0000;0.0000;0.0000;0.9174;0.0439;-49.1638;34.9100 
1813.243;-0.3252;0.0586;1.0400;0.0000;0.0000;0.0000;0.9229;0.0934;-49.1583;34.9100 
1813.243;-0.3252;0.0586;1.0400;0.0000;0.0000;0.0000;0.9283;0.1428;-49.1583;34.8300 
1813.243;-0.7227;0.1294;1.0054;0.0610;1.3428;0.4883;0.9393;0.2582;-49.1364;34.8300 
1813.253;-0.7227;0.1294;1.0054;0.0610;1.3428;0.4883;0.9503;0.3680;-49.1199;34.8500 
1813.253;-0.7227;0.1294;1.0054;0.0610;1.3428;0.4883;0.9613;0.4779;-49.0979;34.8500 
1813.263;-0.7227;0.1294;1.0054;0.0610;1.3428;0.4883;0.9723;0.5933;-49.0814;34.8400 
1813.263;-0.7227;0.1294;1.0054;0.0610;1.3428;0.4883;0.9888;0.7031;-49.0649;34.8400 
1813.273;-0.7227;0.1294;1.0054;0.0610;1.3428;0.4883;0.9998;0.8130;-49.0485;34.8400 
1813.273;-0.7227;0.1294;1.0054;0.0610;1.3428;0.4883;1.0107;0.9229;-49.0320;34.8400 
1813.273;-0.7227;0.1294;1.0054;0.0610;1.3428;0.4883;1.0217;1.0327;-49.0155;34.8400 
1813.273;-1.3647;0.2515;0.9624;0.3662;3.5400;1.5259;1.0327;1.2030;-48.9661;34.8600 
1813.293;-1.3647;0.2515;0.9624;0.3662;3.5400;1.5259;1.0437;1.3788;-48.9221;34.8600 
1813.293;-1.3647;0.2515;0.9624;0.3662;3.5400;1.5259;1.0547;1.5491;-48.8782;34.8500 
1813.313;-1.3647;0.2515;0.9624;0.3662;3.5400;1.5259;1.0602;1.7249;-48.8287;34.8500 
1813.313;-1.3647;0.2515;0.9624;0.3662;3.5400;1.5259;1.0712;1.8951;-48.7848;34.9000 
1813.313;-1.3647;0.2515;0.9624;0.3662;3.5400;1.5259;1.0822;2.0654;-48.7408;34.9000 
1813.313;-1.3647;0.2515;0.9624;0.3662;3.5400;1.5259;1.0931;2.2357;-48.6969;34.8700 
1813.323;-1.3647;0.2515;0.9624;0.3662;3.5400;1.5259;1.1041;2.4060;-48.6530;34.8700 
1813.323;-1.9082;0.3291;0.9282;0.4272;5.0049;2.7466;1.1041;2.6093;-48.5815;34.8800 
1813.333;-1.9082;0.3291;0.9282;0.4272;5.0049;2.7466;1.0986;2.8070;-48.5101;34.8800 
1813.433;-1.9082;0.3291;0.9282;0.4272;5.0049;2.7466;1.0986;3.0103;-48.4387;34.8400 
1813.433;-1.9082;0.3291;0.9282;0.4272;5.0049;2.7466;1.0986;3.2080;-48.3673;34.8400 
1813.433;-1.9082;0.3291;0.9282;0.4272;5.0049;2.7466;1.0986;3.4058;-48.3014;34.8500 
1813.433;-1.9082;0.3291;0.9282;0.4272;5.0049;2.7466;1.0986;3.6090;-48.2300;34.8500 
1813.433;-1.9082;0.3291;0.9282;0.4272;5.0049;2.7466;1.0931;3.8068;-48.1586;34.8400 
1813.433;-1.9082;0.3291;0.9282;0.4272;5.0049;2.7466;1.0986;4.0045;-48.0927;34.8400 
1813.443;-2.2461;0.4277;0.8940;0.2441;4.6387;3.2349;1.0931;4.2078;-48.0157;34.8400 
1813.443;-2.2461;0.4277;0.8940;0.2441;4.6387;3.2349;1.0876;4.4165;-47.9333;34.8700 
1813.443;-2.2461;0.4277;0.8940;0.2441;4.6387;3.2349;1.0876;4.6198;-47.8564;34.8700 
1813.443;-2.2461;0.4277;0.8940;0.2441;4.6387;3.2349;1.0822;4.8230;-47.7795;34.8800 
1813.443;-2.2461;0.4277;0.8940;0.2441;4.6387;3.2349;1.0822;5.0317;-47.7026;34.8800 
1813.443;-2.2461;0.4277;0.8940;0.2441;4.6387;3.2349;1.0822;5.2350;-47.6257;34.9000 
1813.443;-2.2461;0.4277;0.8940;0.2441;4.6387;3.2349;1.0822;5.4382;-47.5488;34.9000 
1813.443;-2.2461;0.4277;0.8940;0.2441;4.6387;3.2349;1.0822;5.6415;-47.4664;34.8800 
1813.443;-2.1523;0.3818;0.8438;-0.1221;2.0142;2.9907;1.0712;5.8282;-47.3895;34.8800 
1813.443;-2.1523;0.3818;0.8438;-0.1221;2.0142;2.9907;1.0657;6.0205;-47.3126;34.9200 
1813.443;-2.1523;0.3818;0.8438;-0.1221;2.0142;2.9907;1.0602;6.2073;-47.2302;34.9200 
1813.443;-2.1523;0.3818;0.8438;-0.1221;2.0142;2.9907;1.0492;6.3940;-47.1478;34.8800 
1813.443;-2.1523;0.3818;0.8438;-0.1221;2.0142;2.9907;1.0437;6.5808;-47.0709;34.8800 
1813.443;-2.1523;0.3818;0.8438;-0.1221;2.0142;2.9907;1.0327;6.7676;-46.9885;34.8700 
1813.443;-2.1523;0.3818;0.8438;-0.1221;2.0142;2.9907;1.0272;6.9543;-46.9061;34.8700 
1813.443;-2.1523;0.3818;0.8438;-0.1221;2.0142;2.9907;1.0217;7.1411;-46.8237;34.9300 
1813.453;-1.7769;0.3149;0.7671;-0.9766;-2.5024;2.9907;1.0107;7.3004;-46.7468;34.9300 
1813.453;-1.7769;0.3149;0.7671;-0.9766;-2.5024;2.9907;0.9998;7.4597;-46.6699;34.9300 
1813.463;-1.7769;0.3149;0.7671;-0.9766;-2.5024;2.9907;0.9943;7.6190;-46.5930;34.9000 
1813.463;-1.7769;0.3149;0.7671;-0.9766;-2.5024;2.9907;0.9833;7.7728;-46.5106;34.9000 
1813.473;-1.7769;0.3149;0.7671;-0.9766;-2.5024;2.9907;0.9723;7.9321;-46.4337;34.8800 
1813.473;-1.7769;0.3149;0.7671;-0.9766;-2.5024;2.9907;0.9613;8.0859;-46.3568;34.8800 
1813.473;-1.7769;0.3149;0.7671;-0.9766;-2.5024;2.9907;0.9558;8.2452;-46.2744;34.9400 
1813.473;-1.7769;0.3149;0.7671;-0.9766;-2.5024;2.9907;0.9448;8.3990;-46.1975;34.9400 
1813.493;-1.1543;0.1826;0.5811;-1.9531;-7.6904;4.6997;0.9338;8.5199;-46.1151;34.8300 
1813.493;-1.1543;0.1826;0.5811;-1.9531;-7.6904;4.6997;0.9229;8.6407;-46.0382;34.8300 
1813.493;-1.1543;0.1826;0.5811;-1.9531;-7.6904;4.6997;0.9119;8.7616;-45.9558;34.8500 
1813.493;-1.1543;0.1826;0.5811;-1.9531;-7.6904;4.6997;0.9009;8.8770;-45.8734;34.8500 
1813.513;-1.1543;0.1826;0.5811;-1.9531;-7.6904;4.6997;0.8899;8.9978;-45.7910;34.8700 
1813.533;-1.1543;0.1826;0.5811;-1.9531;-7.6904;4.6997;0.8734;9.1187;-45.7031;34.8700 
1813.533;-1.1543;0.1826;0.5811;-1.9531;-7.6904;4.6997;0.8624;9.2340;-45.6152;34.9300 
1813.633;-1.1543;0.1826;0.5811;-1.9531;-7.6904;4.6997;0.8459;9.3549;-45.5328;34.9300 
1813.633;-0.4922;0.0454;0.3599;-2.8687;-11.9629;9.4604;0.8350;9.4208;-45.4449;34.8400 
1813.633;-0.4922;0.0454;0.3599;-2.8687;-11.9629;9.4604;0.8240;9.4922;-45.3516;34.8400 
1813.633;-0.4922;0.0454;0.3599;-2.8687;-11.9629;9.4604;0.8130;9.5636;-45.2637;34.8400 
1813.633;-0.4922;0.0454;0.3599;-2.8687;-11.9629;9.4604;0.8020;9.6295;-45.1758;34.8600 
1813.633;-0.4922;0.0454;0.3599;-2.8687;-11.9629;9.4604;0.7910;9.7009;-45.0879;34.8600 
1813.643;-0.4922;0.0454;0.3599;-2.8687;-11.9629;9.4604;0.7800;9.7723;-45.0000;34.9000 
1813.643;-0.4922;0.0454;0.3599;-2.8687;-11.9629;9.4604;0.7690;9.8383;-44.9121;34.9000 
1813.643;-0.4922;0.0454;0.3599;-2.8687;-11.9629;9.4604;0.7581;9.9097;-44.8242;34.8700 
1813.643;0.0278;-0.0630;0.1807;-3.7231;-15.1367;17.4561;0.6921;9.7778;-44.7528;34.8700 
1813.643;0.0278;-0.0630;0.1807;-3.7231;-15.1367;17.4561;0.6262;9.6515;-44.6759;34.9300 
1813.643;0.0278;-0.0630;0.1807;-3.7231;-15.1367;17.4561;0.5603;9.5197;-44.6045;34.9300 
1813.643;0.0278;-0.0630;0.1807;-3.7231;-15.1367;17.4561;0.4944;9.3933;-44.5276;34.8400 
1813.643;0.0278;-0.0630;0.1807;-3.7231;-15.1367;17.4561;0.4340;9.2670;-44.4562;34.8400 
1813.643;0.0278;-0.0630;0.1807;-3.7231;-15.1367;17.4561;0.3680;9.1406;-44.3793;34.9000 
1813.643;0.0278;-0.0630;0.1807;-3.7231;-15.1367;17.4561;0.3021;9.0143;-44.3024;34.9000 
1813.643;0.0278;-0.0630;0.1807;-3.7231;-15.1367;17.4561;0.2362;8.8879;-44.2255;34.8400 
1813.643;0.3428;-0.1328;0.0747;-4.3335;-16.7847;27.5269;0.2032;8.5638;-44.0387;34.8400 
1813.643;0.3428;-0.1328;0.0747;-4.3335;-16.7847;27.5269;0.1703;8.2507;-43.8464;34.8400 
1813.643;0.3428;-0.1328;0.0747;-4.3335;-16.7847;27.5269;0.1428;7.9321;-43.6542;34.8100 
1813.643;0.3428;-0.1328;0.0747;-4.3335;-16.7847;27.5269;0.1099;7.6135;-43.4564;34.8100 
1813.643;0.3428;-0.1328;0.0747;-4.3335;-16.7847;27.5269;0.0769;7.3004;-43.2642;34.8500 
1813.663;0.3428;-0.1328;0.0747;-4.3335;-16.7847;27.5269;0.0439;6.9818;-43.0719;34.8500 
1813.663;0.3428;-0.1328;0.0747;-4.3335;-16.7847;27.5269;0.0055;6.6687;-42.8741;34.8400 
1813.683;0.3428;-0.1328;0.0747;-4.3335;-16.7847;27.5269;-0.0220;6.3556;-42.6764;34.8400 
1813.683;0.4717;-0.1704;0.0420;-4.9438;-16.1743;38.7573;-0.0220;6.0260;-42.4017;34.8800 
1813.683;0.4717;-0.1704;0.0420;-4.9438;-16.1743;38.7573;-0.0275;5.7019;-42.1216;34.8800 
1813.683;0.4717;-0.1704;0.0420;-4.9438;-16.1743;38.7573;-0.0275;5.3778;-41.8414;34.8100 
1813.693;0.4717;-0.1704;0.0420;-4.9438;-16.1743;38.7573;-0.0330;5.0537;-41.5613;34.8100 
1813.693;0.4717;-0.1704;0.0420;-4.9438;-16.1743;38.7573;-0.0385;4.7296;-41.2866;34.9100 
1813.703;0.4717;-0.1704;0.0420;-4.9438;-16.1743;38.7573;-0.0494;4.4055;-41.0065;34.9100 
1813.703;0.4717;-0.1704;0.0420;-4.9438;-16.1743;38.7573;-0.0549;4.0814;-40.7263;34.9000 
1813.703;0.4717;-0.1704;0.0420;-4.9438;-16.1743;38.7573;-0.0659;3.7628;-40.4462;34.9000 
1813.703;0.4692;-0.1880;0.0664;-5.9814;-13.3667;50.5981;-0.0989;3.4607;-40.1221;34.8400 
1813.703;0.4692;-0.1880;0.0664;-5.9814;-13.3667;50.5981;-0.1318;3.1641;-39.7980;34.8400 
1813.713;0.4692;-0.1880;0.0664;-5.9814;-13.3667;50.5981;-0.1703;2.8619;-39.4739;34.8400 
1813.713;0.4692;-0.1880;0.0664;-5.9814;-13.3667;50.5981;-0.2087;2.5653;-39.1443;34.8600 
1813.732;0.4692;-0.1880;0.0664;-5.9814;-13.3667;50.5981;-0.2472;2.2687;-38.8202;34.8600 
1813.732;0.4692;-0.1880;0.0664;-5.9814;-13.3667;50.5981;-0.2856;1.9720;-38.4961;34.9000 
1813.732;0.4692;-0.1880;0.0664;-5.9814;-13.3667;50.5981;-0.3296;1.6754;-38.1665;34.9000 
1813.732;0.4692;-0.1880;0.0664;-5.9814;-13.3667;50.5981;-0.3735;1.3843;-37.8424;34.8700 
1813.732;0.2671;-0.3359;0.3345;-8.0566;-8.7280;62.8052;-0.5219;1.2415;-37.5293;34.8700 
1813.732;0.2671;-0.3359;0.3345;-8.0566;-8.7280;62.8052;-0.6702;1.1041;-37.2107;34.8800 
1813.743;0.2671;-0.3359;0.3345;-8.0566;-8.7280;62.8052;-0.8185;0.9668;-36.8976;34.8800 
1813.743;0.2671;-0.3359;0.3345;-8.0566;-8.7280;62.8052;-0.9723;0.8295;-36.5790;34.9200 
1813.832;0.2671;-0.3359;0.3345;-8.0566;-8.7280;62.8052;-1.1206;0.6976;-36.2659;34.9200 
1813.832;0.2671;-0.3359;0.3345;-8.0566;-8.7280;62.8052;-1.2744;0.5658;-35.9473;34.8400 
1813.852;0.2671;-0.3359;0.3345;-8.0566;-8.7280;62.8052;-1.4227;0.4285;-35.6287;34.8400 
1813.852;0.2671;-0.3359;0.3345;-8.0566;-8.7280;62.8052;-1.5765;0.3021;-35.3156;34.8200 
1813.852;0.3032;-0.3726;0.7056;-6.7749;-4.2725;73.5474;-1.6809;0.2252;-34.9420;34.8200 
1813.852;0.3032;-0.3726;0.7056;-6.7749;-4.2725;73.5474;-1.7853;0.1483;-34.5740;34.9100 
1813.852;0.3032;-0.3726;0.7056;-6.7749;-4.2725;73.5474;-1.8951;0.0714;-34.2004;34.9100 
1813.852;0.3032;-0.3726;0.7056;-6.7749;-4.2725;73.5474;-1.9995;0.0000;-33.8324;34.9100 
1813.852;0.3032;-0.3726;0.7056;-6.7749;-4.2725;73.5474;-2.1039;-0.0659;-33.4644;34.8800 
1813.852;0.3032;-0.3726;0.7056;-6.7749;-4.2725;73.5474;-2.2137;-0.1373;-33.0963;34.8800 
1813.852;0.3032;-0.3726;0.7056;-6.7749;-4.2725;73.5474;-2.3236;-0.2087;-32.7283;34.8900 
1813.852;0.3032;-0.3726;0.7056;-6.7749;-4.2725;73.5474;-2.4280;-0.2747;-32.3657;34.8900 
1813.892;0.1504;-0.4233;1.0088;5.0659;-1.9531;80.0781;-2.4664;-0.2911;-31.9757;34.8200 
1813.892;0.1504;-0.4233;1.0088;5.0659;-1.9531;80.0781;-2.5049;-0.3021;-31.5802;34.8200 
1813.912;0.1504;-0.4233;1.0088;5.0659;-1.9531;80.0781;-2.5433;-0.3186;-31.1957;34.8500 
1813.912;0.1504;-0.4233;1.0088;5.0659;-1.9531;80.0781;-2.5818;-0.3296;-30.8057;34.8500 
1813.922;0.1504;-0.4233;1.0088;5.0659;-1.9531;80.0781;-2.6147;-0.3406;-30.4156;34.8900 
1813.932;0.1504;-0.4233;1.0088;5.0659;-1.9531;80.0781;-2.6532;-0.3516;-30.0311;34.8900 
1813.932;0.1504;-0.4233;1.0088;5.0659;-1.9531;80.0781;-2.6917;-0.3625;-29.6466;34.8700 
1813.942;0.1504;-0.4233;1.0088;5.0659;-1.9531;80.0781;-2.7301;-0.3735;-29.2566;34.8700 
1813.942;0.3223;-0.2676;1.3135;27.4658;-2.7466;81.9702;-2.6202;-0.4120;-28.8611;34.8400 
1813.942;0.3223;-0.2676;1.3135;27.4658;-2.7466;81.9702;-2.5159;-0.4449;-28.4601;34.8400 
1814.032;0.3223;-0.2676;1.3135;27.4658;-2.7466;81.9702;-2.4115;-0.4779;-28.0591;34.8600 
1814.052;0.3223;-0.2676;1.3135;27.4658;-2.7466;81.9702;-2.3016;-0.5109;-27.6636;34.8600 
1814.052;0.3223;-0.2676;1.3135;27.4658;-2.7466;81.9702;-2.1973;-0.5493;-27.2626;34.8600 
1814.052;0.3223;-0.2676;1.3135;27.4658;-2.7466;81.9702;-2.0929;-0.5878;-26.8671;34.9000 
1814.052;0.3223;-0.2676;1.3135;27.4658;-2.7466;81.9702;-1.9940;-0.6207;-26.4716;34.9000 
1814.052;0.3223;-0.2676;1.3135;27.4658;-2.7466;81.9702;-1.8896;-0.6592;-26.0706;34.8300 
1814.052;0.4165;-0.0371;1.2495;51.9409;-6.4697;81.3599;-1.6370;-0.7306;-25.6750;34.8300 
1814.052;0.4165;-0.0371;1.2495;51.9409;-6.4697;81.3599;-1.3843;-0.8075;-25.2740;34.8700 
1814.052;0.4165;-0.0371;1.2495;51.9409;-6.4697;81.3599;-1.1316;-0.8844;-24.8785;34.8700 
1814.052;0.4165;-0.0371;1.2495;51.9409;-6.4697;81.3599;-0.8844;-0.9613;-24.4775;34.8400 
1814.052;0.4165;-0.0371;1.2495;51.9409;-6.4697;81.3599;-0.6317;-1.0382;-24.0820;34.8400 
1814.062;0.4165;-0.0371;1.2495;51.9409;-6.4697;81.3599;-0.3845;-1.1206;-23.6810;34.8700 
1814.062;0.4165;-0.0371;1.2495;51.9409;-6.4697;81.3599;-0.1428;-1.2030;-23.2800;34.8700 
1814.082;0.4165;-0.0371;1.2495;51.9409;-6.4697;81.3599;0.0989;-1.2854;-22.8790;34.8800 
1814.082;0.5186;0.2129;1.0684;64.0259;-9.7656;82.7026;0.4395;-1.4063;-22.4725;34.8800 
1814.092;0.5186;0.2129;1.0684;64.0259;-9.7656;82.7026;0.7745;-1.5326;-22.0660;34.8600 
1814.092;0.5186;0.2129;1.0684;64.0259;-9.7656;82.7026;1.1096;-1.6644;-21.6595;34.8600 
1814.112;0.5186;0.2129;1.0684;64.0259;-9.7656;82.7026;1.4447;-1.7908;-21.2531;34.8200 
1814.112;0.5186;0.2129;1.0684;64.0259;-9.7656;82.7026;1.7798;-1.9226;-20.8466;34.8200 
1814.122;0.5186;0.2129;1.0684;64.0259;-9.7656;82.7026;2.1094;-2.0544;-20.4401;34.8200 
1814.122;0.5186;0.2129;1.0684;64.0259;-9.7656;82.7026;2.4390;-2.1918;-20.0281;34.8900 
1814.142;0.5186;0.2129;1.0684;64.0259;-9.7656;82.7026;2.7631;-2.3291;-19.6216;34.8900 
1814.142;0.6470;0.2017;0.9575;51.0254;-8.0566;90.3320;3.0267;-2.4829;-19.1766;34.8800 
1814.232;0.6470;0.2017;0.9575;51.0254;-8.0566;90.3320;3.2794;-2.6422;-18.7262;34.8800 
1814.232;0.6470;0.2017;0.9575;51.0254;-8.0566;90.3320;3.5376;-2.8015;-18.2813;34.8700 
1814.242;0.6470;0.2017;0.9575;51.0254;-8.0566;90.3320;3.7903;-2.9608;-17.8363;34.8700 
1814.242;0.6470;0.2017;0.9575;51.0254;-8.0566;90.3320;4.0430;-3.1201;-17.3914;34.9400 
1814.242;0.6470;0.2017;0.9575;51.0254;-8.0566;90.3320;4.2902;-3.2849;-16.9409;34.9400 
1814.242;0.6470;0.2017;0.9575;51.0254;-8.0566;90.3320;4.5428;-3.4497;-16.4960;34.8700 
1814.242;0.6470;0.2017;0.9575;51.0254;-8.0566;90.3320;4.7900;-3.6145;-16.0455;34.8700 
1814.242;0.5879;0.0762;0.8101;16.1133;0.6714;103.6377;4.8395;-3.7518;-15.5237;34.9100 
1814.242;0.5879;0.0762;0.8101;16.1133;0.6714;103.6377;4.8889;-3.8837;-15.0018;34.9100 
1814.242;0.5879;0.0762;0.8101;16.1133;0.6714;103.6377;4.9329;-4.0210;-14.4800;34.9000 
1814.242;0.5879;0.0762;0.8101;16.1133;0.6714;103.6377;4.9823;-4.1583;-13.9581;34.9000 
1814.242;0.5879;0.0762;0.8101;16.1133;0.6714;103.6377;5.0262;-4.2902;-13.4363;34.9000 
1814.242;0.5879;0.0762;0.8101;16.1133;0.6714;103.6377;5.0702;-4.4275;-12.9144;34.8900 
1814.282;0.5879;0.0762;0.8101;16.1133;0.6714;103.6377;5.1141;-4.5648;-12.3926;34.8900 
1814.282;0.5879;0.0762;0.8101;16.1133;0.6714;103.6377;5.1526;-4.6967;-11.8707;34.9000 
1814.302;0.5781;-0.1519;0.8848;-22.8882;13.8550;116.1499;4.9548;-4.7681;-11.2665;34.9000 
1814.302;0.5781;-0.1519;0.8848;-22.8882;13.8550;116.1499;4.7571;-4.8340;-10.6677;34.8800 
1814.302;0.5781;-0.1519;0.8848;-22.8882;13.8550;116.1499;4.5593;-4.8944;-10.0635;34.8800 
1814.302;0.5781;-0.1519;0.8848;-22.8882;13.8550;116.1499;4.3616;-4.9603;-9.4592;34.9100 
1814.312;0.5781;-0.1519;0.8848;-22.8882;13.8550;116.1499;4.1638;-5.0153;-8.8605;34.9100 
1814.312;0.5781;-0.1519;0.8848;-22.8882;13.8550;116.1499;3.9661;-5.0757;-8.2617;34.8500 
1814.322;0.5781;-0.1519;0.8848;-22.8882;13.8550;116.1499;3.7683;-5.1306;-7.6630;34.8500 
1814.322;0.5781;-0.1519;0.8848;-22.8882;13.8550;116.1499;3.5651;-5.1801;-7.0642;34.8600 
1814.342;0.4463;-0.3501;0.9219;-49.7437;24.9634;121.2158;3.2025;-5.1581;-6.4270;34.8600 
1814.342;0.4463;-0.3501;0.9219;-49.7437;24.9634;121.2158;2.8345;-5.1251;-5.7898;34.8900 
1814.442;0.4463;-0.3501;0.9219;-49.7437;24.9634;121.2158;2.4719;-5.0922;-5.1526;34.8900 
1814.442;0.4463;-0.3501;0.9219;-49.7437;24.9634;121.2158;2.1094;-5.0537;-4.5209;34.9300 
1814.452;0.4463;-0.3501;0.9219;-49.7437;24.9634;121.2158;1.7468;-5.0153;-3.8892;34.9300 
1814.452;0.4463;-0.3501;0.9219;-49.7437;24.9634;121.2158;1.3843;-4.9713;-3.2574;34.9300 
1814.452;0.4463;-0.3501;0.9219;-49.7437;24.9634;121.2158;1.0272;-4.9219;-2.6257;34.9200 
1814.452;0.4463;-0.3501;0.9219;-49.7437;24.9634;121.2158;0.6702;-4.8669;-1.9940;34.9200 
1814.452;0.3281;-0.4077;1.0073;-56.7627;29.4189;115.9668;0.2747;-4.7681;-1.3843;34.8800 
1814.452;0.3281;-0.4077;1.0073;-56.7627;29.4189;115.9668;-0.1099;-4.6637;-0.7800;34.8800 
1814.452;0.3281;-0.4077;1.0073;-56.7627;29.4189;115.9668;-0.4999;-4.5538;-0.1758;34.8900 
1814.452;0.3281;-0.4077;1.0073;-56.7627;29.4189;115.9668;-0.8899;-4.4440;0.4230;34.8900 
1814.452;0.3281;-0.4077;1.0073;-56.7627;29.4189;115.9668;-1.2744;-4.3286;1.0217;34.8400 
1814.452;0.3281;-0.4077;1.0073;-56.7627;29.4189;115.9668;-1.6589;-4.2078;1.6205;34.8400 
1814.452;0.3281;-0.4077;1.0073;-56.7627;29.4189;115.9668;-2.0380;-4.0869;2.2192;34.8900 
1814.452;0.3281;-0.4077;1.0073;-56.7627;29.4189;115.9668;-2.4170;-3.9606;2.8180;34.8900 
1814.452;0.2671;-0.4150;1.0435;-46.4478;25.5127;102.0508;-2.7411;-3.8397;3.3453;34.8900 
1814.452;0.2671;-0.4150;1.0435;-46.4478;25.5127;102.0508;-3.0597;-3.7189;3.8727;34.8900 
1814.462;0.2671;-0.4150;1.0435;-46.4478;25.5127;102.0508;-3.3728;-3.5980;4.3945;34.9300 
1814.482;0.2671;-0.4150;1.0435;-46.4478;25.5127;102.0508;-3.6859;-3.4717;4.9164;34.9300 
1814.482;0.2671;-0.4150;1.0435;-46.4478;25.5127;102.0508;-3.9990;-3.3453;5.4382;34.9200 
1814.482;0.2671;-0.4150;1.0435;-46.4478;25.5127;102.0508;-4.3121;-3.2135;5.9601;34.9200 
1814.482;0.2671;-0.4150;1.0435;-46.4478;25.5127;102.0508;-4.6198;-3.0817;6.4764;34.9200 
1814.502;0.2671;-0.4150;1.0435;-46.4478;25.5127;102.0508;-4.9219;-2.9498;6.9928;34.9000 
1814.502;0.2534;-0.4131;1.0522;-29.1748;16.4185;84.4727;-5.1361;-2.8619;7.4213;34.9000 
1814.502;0.2534;-0.4131;1.0522;-29.1748;16.4185;84.4727;-5.3503;-2.7740;7.8497;34.9100 
1814.502;0.2534;-0.4131;1.0522;-29.1748;16.4185;84.4727;-5.5591;-2.6862;8.2837;34.9100 
1814.512;0.2534;-0.4131;1.0522;-29.1748;16.4185;84.4727;-5.7678;-2.5928;8.7122;34.8700 
1814.512;0.2534;-0.4131;1.0522;-29.1748;16.4185;84.4727;-5.9766;-2.4994;9.1406;34.8700 
1814.512;0.2534;-0.4131;1.0522;-29.1748;16.4185;84.4727;-6.1853;-2.4060;9.5691;34.8800 
1814.512;0.2534;-0.4131;1.0522;-29.1748;16.4185;84.4727;-6.3885;-2.3126;9.9976;34.8800 
1814.512;0.2534;-0.4131;1.0522;-29.1748;16.4185;84.4727;-6.5918;-2.2192;10.4260;34.8900 
1814.512;0.2798;-0.4248;1.0425;-12.8784;7.3242;67.3828;-6.7126;-2.1808;10.7721;34.8900 
1814.512;0.2798;-0.4248;1.0425;-12.8784;7.3242;67.3828;-6.8335;-2.1423;11.1182;34.8600 
1814.512;0.2798;-0.4248;1.0425;-12.8784;7.3242;67.3828;-6.9543;-2.1039;11.4587;34.8600 
1814.522;0.2798;-0.4248;1.0425;-12.8784;7.3242;67.3828;-7.0752;-2.0654;11.8048;34.8700 
1814.522;0.2798;-0.4248;1.0425;-12.8784;7.3242;67.3828;-7.1906;-2.0270;12.1564;34.8700 
1814.522;0.2798;-0.4248;1.0425;-12.8784;7.3242;67.3828;-7.3114;-1.9830;12.5024;34.8700 
1814.522;0.2798;-0.4248;1.0425;-12.8784;7.3242;67.3828;-7.4268;-1.9446;12.8485;34.8700 
1814.522;0.2798;-0.4248;1.0425;-12.8784;7.3242;67.3828;-7.5421;-1.9006;13.1891;34.8700 
1814.522;0.3262;-0.4512;1.0249;-1.0986;0.6104;52.5513;-7.6025;-1.9116;13.4637;34.9400 
1814.522;0.3262;-0.4512;1.0249;-1.0986;0.6104;52.5513;-7.6630;-1.9171;13.7384;34.9400 
1814.532;0.3262;-0.4512;1.0249;-1.0986;0.6104;52.5513;-7.7234;-1.9226;14.0131;34.9000 
1814.532;0.3262;-0.4512;1.0249;-1.0986;0.6104;52.5513;-7.7783;-1.9281;14.2822;34.9000 
1814.532;0.3262;-0.4512;1.0249;-1.0986;0.6104;52.5513;-7.8387;-1.9391;14.5569;34.8800 
1814.532;0.3262;-0.4512;1.0249;-1.0986;0.6104;52.5513;-7.8992;-1.9446;14.8315;34.8800 
1814.532;0.3262;-0.4512;1.0249;-1.0986;0.6104;52.5513;-7.9541;-1.9501;15.1062;34.8800 
1814.532;0.3262;-0.4512;1.0249;-1.0986;0.6104;52.5513;-8.0145;-1.9556;15.3754;34.8800 
1814.532;0.3462;-0.4580;1.0078;5.2490;-3.0518;40.1001;-8.0420;-1.9885;15.5896;34.8700 
1814.532;0.3462;-0.4580;1.0078;5.2490;-3.0518;40.1001;-8.0695;-2.0270;15.7983;34.8700 
1814.542;0.3462;-0.4580;1.0078;5.2490;-3.0518;40.1001;-8.0969;-2.0599;16.0126;34.8300 
1814.542;0.3462;-0.4580;1.0078;5.2490;-3.0518;40.1001;-8.1189;-2.0929;16.2268;34.8300 
1814.542;0.3462;-0.4580;1.0078;5.2490;-3.0518;40.1001;-8.1464;-2.1313;16.4355;34.8400 
1814.542;0.3462;-0.4580;1.0078;5.2490;-3.0518;40.1001;-8.1738;-2.1643;16.6498;34.8400 
1814.552;0.3462;-0.4580;1.0078;5.2490;-3.0518;40.1001;-8.2013;-2.1973;16.8585;34.8400 
1814.552;0.3462;-0.4580;1.0078;5.2490;-3.0518;40.1001;-8.2288;-2.2302;17.0673;34.8200 
1814.552;0.3203;-0.4146;0.9951;7.3242;-4.2725;29.7852;-8.2397;-2.2742;17.2266;34.8200 
1814.552;0.3203;-0.4146;0.9951;7.3242;-4.2725;29.7852;-8.2507;-2.3181;17.3859;34.8400 
1814.552;0.3203;-0.4146;0.9951;7.3242;-4.2725;29.7852;-8.2617;-2.3621;17.5452;34.8400 
1814.552;0.3203;-0.4146;0.9951;7.3242;-4.2725;29.7852;-8.2727;-2.4060;17.7045;34.8800 
1814.552;0.3203;-0.4146;0.9951;7.3242;-4.2725;29.7852;-8.2782;-2.4500;17.8693;34.8800 
1814.552;0.3203;-0.4146;0.9951;7.3242;-4.2725;29.7852;-8.2892;-2.4939;18.0286;34.9100 
1814.642;0.3203;-0.4146;0.9951;7.3242;-4.2725;29.7852;-8.3002;-2.5378;18.1879;34.9100 
1814.642;0.3203;-0.4146;0.9951;7.3242;-4.2725;29.7852;-8.3112;-2.5818;18.3417;34.8300 
1814.642;0.2632;-0.3340;0.9883;6.7139;-3.7231;21.3013;-8.3112;-2.6202;18.4570;34.8300 
1814.642;0.2632;-0.3340;0.9883;6.7139;-3.7231;21.3013;-8.3167;-2.6587;18.5669;34.8500 
1814.642;0.2632;-0.3340;0.9883;6.7139;-3.7231;21.3013;-8.3167;-2.6917;18.6768;34.8500 
1814.642;0.2632;-0.3340;0.9883;6.7139;-3.7231;21.3013;-8.3167;-2.7301;18.7866;34.9000 
1814.662;0.2632;-0.3340;0.9883;6.7139;-3.7231;21.3013;-8.3221;-2.7686;18.9020;34.9000 
1814.662;0.2632;-0.3340;0.9883;6.7139;-3.7231;21.3013;-8.3221;-2.8070;19.0118;34.8200 
1814.662;0.2632;-0.3340;0.9883;6.7139;-3.7231;21.3013;-8.3221;-2.8455;19.1217;34.8200 
1814.662;0.2632;-0.3340;0.9883;6.7139;-3.7231;21.3013;-8.3276;-2.8839;19.2316;34.8200 
1814.662;0.1821;-0.2207;0.9868;4.8218;-2.3804;14.1602;-8.3167;-2.9059;19.3030;34.8800 
1814.662;0.1821;-0.2207;0.9868;4.8218;-2.3804;14.1602;-8.3112;-2.9279;19.3744;34.8800 
1814.662;0.1821;-0.2207;0.9868;4.8218;-2.3804;14.1602;-8.3057;-2.9498;19.4458;34.8700 
1814.662;0.1821;-0.2207;0.9868;4.8218;-2.3804;14.1602;-8.2947;-2.9773;19.5172;34.8700 
1814.662;0.1821;-0.2207;0.9868;4.8218;-2.3804;14.1602;-8.2892;-2.9993;19.5886;34.8800 
1814.662;0.1821;-0.2207;0.9868;4.8218;-2.3804;14.1602;-8.2782;-3.0212;19.6600;34.8800 
1814.662;0.1821;-0.2207;0.9868;4.8218;-2.3804;14.1602;-8.2727;-3.0432;19.7314;34.8100 
1814.662;0.1821;-0.2207;0.9868;4.8218;-2.3804;14.1602;-8.2672;-3.0652;19.8029;34.8100 
1814.662;0.1104;-0.1079;0.9878;2.8076;-0.9766;8.0566;-8.2507;-3.0762;19.8468;34.8400 
1814.662;0.1104;-0.1079;0.9878;2.8076;-0.9766;8.0566;-8.2288;-3.0872;19.8853;34.8400 
1814.662;0.1104;-0.1079;0.9878;2.8076;-0.9766;8.0566;-8.2123;-3.0927;19.9292;34.8700 
1814.662;0.1104;-0.1079;0.9878;2.8076;-0.9766;8.0566;-8.1958;-3.1036;19.9786;34.8700 
1814.662;0.1104;-0.1079;0.9878;2.8076;-0.9766;8.0566;-8.1793;-3.1091;20.0226;34.8700 
1814.662;0.1104;-0.1079;0.9878;2.8076;-0.9766;8.0566;-8.1573;-3.1201;20.0665;34.8700 
1814.662;0.1104;-0.1079;0.9878;2.8076;-0.9766;8.0566;-8.1409;-3.1311;20.1105;34.8300 
1814.662;0.1104;-0.1079;0.9878;2.8076;-0.9766;8.0566;-8.1244;-3.1366;20.1489;34.8300 
1814.662;0.0620;-0.0239;0.9907;1.0986;0.0610;3.1128;-8.0969;-3.1366;20.1709;34.8300 
1814.662;0.0620;-0.0239;0.9907;1.0986;0.0610;3.1128;-8.0750;-3.1366;20.1874;34.8300 
1814.662;0.0620;-0.0239;0.9907;1.0986;0.0610;3.1128;-8.0475;-3.1366;20.2039;34.8300 
1814.662;0.0620;-0.0239;0.9907;1.0986;0.0610;3.1128;-8.0255;-3.1311;20.2203;34.8800 
1814.662;0.0620;-0.0239;0.9907;1.0986;0.0610;3.1128;-7.9980;-3.1311;20.2368;34.8800 
1814.662;0.0620;-0.0239;0.9907;1.0986;0.0610;3.1128;-7.9761;-3.1311;20.2533;34.8600 
1814.662;0.0620;-0.0239;0.9907;1.0986;0.0610;3.1128;-7.9486;-3.1311;20.2698;34.8600 
1814.662;0.0620;-0.0239;0.9907;1.0986;0.0610;3.1128;-7.9266;-3.1311;20.2863;34.8700 
1814.662;0.0386;0.0234;0.9927;0.0000;0.6104;-0.2441;-7.8992;-3.1256;20.2863;34.8700 
1814.662;0.0386;0.0234;0.9927;0.0000;0.6104;-0.2441;-7.8717;-3.1146;20.2808;34.8000 
1814.682;0.0386;0.0234;0.9927;0.0000;0.6104;-0.2441;-7.8442;-3.1091;20.2808;34.8000 
1814.682;0.0386;0.0234;0.9927;0.0000;0.6104;-0.2441;-7.8168;-3.1036;20.2808;34.8600 
1814.682;0.0386;0.0234;0.9927;0.0000;0.6104;-0.2441;-7.7893;-3.0981;20.2753;34.8600 
1814.682;0.0386;0.0234;0.9927;0.0000;0.6104;-0.2441;-7.7618;-3.0981;20.2753;34.9000 
1814.682;0.0386;0.0234;0.9927;0.0000;0.6104;-0.2441;-7.7344;-3.0927;20.2698;34.9000 
1814.682;0.0386;0.0234;0.9927;0.0000;0.6104;-0.2441;-7.7069;-3.0872;20.2643;34.9000 
1814.682;0.0337;0.0396;0.9946;-0.6104;0.7935;-1.9531;-7.6794;-3.0817;20.2533;34.8700 
1814.682;0.0337;0.0396;0.9946;-0.6104;0.7935;-1.9531;-7.6520;-3.0707;20.2423;34.8700 
1814.682;0.0337;0.0396;0.9946;-0.6104;0.7935;-1.9531;-7.6245;-3.0652;20.2368;34.8700 
1814.682;0.0337;0.0396;0.9946;-0.6104;0.7935;-1.9531;-7.5970;-3.0597;20.2258;34.8700 
1814.682;0.0337;0.0396;0.9946;-0.6104;0.7935;-1.9531;-7.5696;-3.0542;20.2203;34.8800 
1814.682;0.0337;0.0396;0.9946;-0.6104;0.7935;-1.9531;-7.5421;-3.0487;20.2094;34.8800 
1814.702;0.0337;0.0396;0.9946;-0.6104;0.7935;-1.9531;-7.5146;-3.0432;20.2039;34.9000 
1814.702;0.0337;0.0396;0.9946;-0.6104;0.7935;-1.9531;-7.4872;-3.0377;20.1929;34.9000 
1814.702;0.0405;0.0347;0.9956;-0.7324;0.6714;-2.3804;-7.4652;-3.0322;20.1819;34.8500 
1814.702;0.0405;0.0347;0.9956;-0.7324;0.6714;-2.3804;-7.4377;-3.0267;20.1764;34.8500 
1814.722;0.0405;0.0347;0.9956;-0.7324;0.6714;-2.3804;-7.4103;-3.0212;20.1654;34.8500 
1814.722;0.0405;0.0347;0.9956;-0.7324;0.6714;-2.3804;-7.3883;-3.0212;20.1599;34.8500 
1814.732;0.0405;0.0347;0.9956;-0.7324;0.6714;-2.3804;-7.3608;-3.0157;20.1489;34.8100 
1814.732;0.0405;0.0347;0.9956;-0.7324;0.6714;-2.3804;-7.3389;-3.0103;20.1434;34.8100 
1814.732;0.0405;0.0347;0.9956;-0.7324;0.6714;-2.3804;-7.3114;-3.0048;20.1324;34.9000 
1814.732;0.0405;0.0347;0.9956;-0.7324;0.6714;-2.3804;-7.2894;-3.0048;20.1270;34.9000 
1814.732;0.0513;0.0200;0.9961;-0.6714;0.4883;-1.9531;-7.2675;-2.9993;20.1160;34.9000 
1814.732;0.0513;0.0200;0.9961;-0.6714;0.4883;-1.9531;-7.2400;-2.9993;20.1050;34.9200 
1814.742;0.0513;0.0200;0.9961;-0.6714;0.4883;-1.9531;-7.2180;-2.9993;20.0995;34.9200 
1814.742;0.0513;0.0200;0.9961;-0.6714;0.4883;-1.9531;-7.1960;-2.9993;20.0885;34.8700 
1814.742;0.0513;0.0200;0.9961;-0.6714;0.4883;-1.9531;-7.1741;-2.9938;20.0830;34.8700 
1814.742;0.0513;0.0200;0.9961;-0.6714;0.4883;-1.9531;-7.1521;-2.9938;20.0720;34.8200 
1814.742;0.0513;0.0200;0.9961;-0.6714;0.4883;-1.9531;-7.1301;-2.9938;20.0665;34.8200 
1814.742;0.0513;0.0200;0.9961;-0.6714;0.4883;-1.9531;-7.1082;-2.9938;20.0555;34.9200 
1814.842;0.0615;0.0039;0.9956;-0.4272;0.2441;-1.2817;-7.0917;-2.9938;20.0500;34.9200 
1814.842;0.0615;0.0039;0.9956;-0.4272;0.2441;-1.2817;-7.0697;-2.9938;20.0500;34.8700 
1814.842;0.0615;0.0039;0.9956;-0.4272;0.2441;-1.2817;-7.0477;-2.9938;20.0446;34.8700 
1814.842;0.0615;0.0039;0.9956;-0.4272;0.2441;-1.2817;-7.0313;-2.9938;20.0391;34.8300 
1814.842;0.0615;0.0039;0.9956;-0.4272;0.2441;-1.2817;-7.0093;-2.9993;20.0336;34.8300 
1814.842;0.0615;0.0039;0.9956;-0.4272;0.2441;-1.2817;-6.9873;-2.9993;20.0336;34.8800 
1814.842;0.0615;0.0039;0.9956;-0.4272;0.2441;-1.2817;-6.9708;-2.9993;20.0336;34.8800 
1814.842;0.0615;0.0039;0.9956;-0.4272;0.2441;-1.2817;-6.9489;-2.9993;20.0336;34.8800 
1814.862;0.0693;-0.0093;0.9956;-0.2441;0.0610;-0.5493;-6.9324;-3.0048;20.0336;34.8800 
1814.862;0.0693;-0.0093;0.9956;-0.2441;0.0610;-0.5493;-6.9104;-3.0048;20.0336;34.8800 
1814.862;0.0693;-0.0093;0.9956;-0.2441;0.0610;-0.5493;-6.8939;-3.0048;20.0391;34.7900 
1814.862;0.0693;-0.0093;0.9956;-0.2441;0.0610;-0.5493;-6.8774;-3.0103;20.0391;34.7900 
1814.862;0.0693;-0.0093;0.9956;-0.2441;0.0610;-0.5493;-6.8610;-3.0103;20.0446;34.8400 
1814.862;0.0693;-0.0093;0.9956;-0.2441;0.0610;-0.5493;-6.8390;-3.0157;20.0446;34.8400 
1814.862;0.0693;-0.0093;0.9956;-0.2441;0.0610;-0.5493;-6.8225;-3.0157;20.0500;34.7700 
1814.862;0.0693;-0.0093;0.9956;-0.2441;0.0610;-0.5493;-6.8060;-3.0212;20.0500;34.7700 
1814.862;0.0737;-0.0171;0.9951;-0.0610;0.0000;0.0000;-6.7896;-3.0267;20.0555;34.8800 
1814.862;0.0737;-0.0171;0.9951;-0.0610;0.0000;0.0000;-6.7731;-3.0267;20.0555;34.8800 
1814.862;0.0737;-0.0171;0.9951;-0.0610;0.0000;0.0000;-6.7511;-3.0322;20.0610;34.7700 
1814.862;0.0737;-0.0171;0.9951;-0.0610;0.0000;0.0000;-6.7346;-3.0322;20.0665;34.7700 
1814.862;0.0737;-0.0171;0.9951;-0.0610;0.0000;0.0000;-6.7181;-3.0377;20.0720;34.9000 
1814.862;0.0737;-0.0171;0.9951;-0.0610;0.0000;0.0000;-6.7017;-3.0432;20.0720;34.9000 
1814.862;0.0737;-0.0171;0.9951;-0.0610;0.0000;0.0000;-6.6852;-3.0432;20.0775;34.9200 
1814.862;0.0737;-0.0171;0.9951;-0.0610;0.0000;0.0000;-6.6687;-3.0487;20.0775;34.9200 
1814.862;0.0752;-0.0200;0.9946;0.0000;-0.0610;0.2441;-6.6522;-3.0542;20.0830;34.8700 
1814.862;0.0752;-0.0200;0.9946;0.0000;-0.0610;0.2441;-6.6357;-3.0542;20.0885;34.8700 
1814.862;0.0752;-0.0200;0.9946;0.0000;-0.0610;0.2441;-6.6193;-3.0597;20.0940;34.8700 
1814.862;0.0752;-0.0200;0.9946;0.0000;-0.0610;0.2441;-6.6028;-3.0652;20.0940;34.8900 
1814.862;0.0752;-0.0200;0.9946;0.0000;-0.0610;0.2441;-6.5863;-3.0652;20.0995;34.8900 
1814.882;0.0752;-0.0200;0.9946;0.0000;-0.0610;0.2441;-6.5698;-3.0707;20.0995;34.8400 
1814.882;0.0752;-0.0200;0.9946;0.0000;-0.0610;0.2441;-6.5533;-3.0762;20.1050;34.8400 
1814.912;0.0747;-0.0200;0.9946;0.0610;-0.0610;0.3052;-6.5369;-3.0817;20.1105;34.9100 
1814.912;0.0747;-0.0200;0.9946;0.0610;-0.0610;0.3052;-6.5204;-3.0817;20.1160;34.9100 
1814.922;0.0747;-0.0200;0.9946;0.0610;-0.0610;0.3052;-6.5039;-3.0872;20.1215;34.8700 
1814.922;0.0747;-0.0200;0.9946;0.0610;-0.0610;0.3052;-6.4874;-3.0872;20.1324;34.8700 
1814.932;0.0747;-0.0200;0.9946;0.0610;-0.0610;0.3052;-6.4709;-3.0927;20.1379;34.8700 
1814.932;0.0747;-0.0200;0.9946;0.0610;-0.0610;0.3052;-6.4545;-3.0981;20.1434;34.8700 
1814.952;0.0747;-0.0200;0.9946;0.0610;-0.0610;0.3052;-6.4380;-3.0981;20.1489;34.8900 
1814.952;0.0747;-0.0200;0.9946;0.0610;-0.0610;0.3052;-6.4215;-3.1036;20.1599;34.8900 
1815.042;0.0732;-0.0181;0.9946;0.0610;0.0000;0.3052;-6.4050;-3.1091;20.1654;34.8700 
1815.042;0.0732;-0.0181;0.9946;0.0610;0.0000;0.3052;-6.3885;-3.1091;20.1709;34.8700 
1815.042;0.0732;-0.0181;0.9946;0.0610;0.0000;0.3052;-6.3776;-3.1146;20.1819;34.8700 
1815.042;0.0732;-0.0181;0.9946;0.0610;0.0000;0.3052;-6.3611;-3.1146;20.1874;34.8900 
1815.052;0.0732;-0.0181;0.9946;0.0610;0.0000;0.3052;-6.3446;-3.1201;20.1929;34.8900 
1815.052;0.0732;-0.0181;0.9946;0.0610;0.0000;0.3052;-6.3281;-3.1201;20.1984;34.8500 
1815.052;0.0732;-0.0181;0.9946;0.0610;0.0000;0.3052;-6.3116;-3.1256;20.2039;34.8500 
1815.052;0.0732;-0.0181;0.9946;0.0610;0.0000;0.3052;-6.2952;-3.1256;20.2094;34.8700 
1815.052;0.0718;-0.0156;0.9946;0.0000;0.0000;0.1831;-6.2787;-3.1311;20.2148;34.8700 
1815.052;0.0718;-0.0156;0.9946;0.0000;0.0000;0.1831;-6.2622;-3.1311;20.2203;34.8700 
1815.052;0.0718;-0.0156;0.9946;0.0000;0.0000;0.1831;-6.2457;-3.1366;20.2203;34.8700 
1815.052;0.0718;-0.0156;0.9946;0.0000;0.0000;0.1831;-6.2292;-3.1366;20.2258;34.8400 
1815.052;0.0718;-0.0156;0.9946;0.0000;0.0000;0.1831;-6.2128;-3.1421;20.2313;34.8400 
1815.052;0.0718;-0.0156;0.9946;0.0000;0.0000;0.1831;-6.1963;-3.1421;20.2368;34.9200 
1815.052;0.0718;-0.0156;0.9946;0.0000;0.0000;0.1831;-6.1798;-3.1476;20.2423;34.9200 
1815.052;0.0718;-0.0156;0.9946;0.0000;0.0000;0.1831;-6.1688;-3.1476;20.2478;34.8600 
1815.052;0.0708;-0.0142;0.9951;0.0000;0.0000;0.0610;-6.1523;-3.1531;20.2533;34.8600 
1815.052;0.0708;-0.0142;0.9951;0.0000;0.0000;0.0610;-6.1359;-3.1531;20.2533;34.8500 
1815.052;0.0708;-0.0142;0.9951;0.0000;0.0000;0.0610;-6.1194;-3.1586;20.2588;34.8500 
1815.052;0.0708;-0.0142;0.9951;0.0000;0.0000;0.0610;-6.1029;-3.1586;20.2588;34.8500 
1815.052;0.0708;-0.0142;0.9951;0.0000;0.0000;0.0610;-6.0864;-3.1641;20.2643;34.8700 
1815.052;0.0708;-0.0142;0.9951;0.0000;0.0000;0.0610;-6.0699;-3.1641;20.2643;34.8700 
1815.052;0.0708;-0.0142;0.9951;0.0000;0.0000;0.0610;-6.0535;-3.1696;20.2643;34.8700 
1815.052;0.0708;-0.0142;0.9951;0.0000;0.0000;0.0610;-6.0370;-3.1696;20.2643;34.8700 
1815.052;0.0703;-0.0127;0.9951;0.0000;0.0000;0.0000;-6.0205;-3.1696;20.2643;34.9000 
1815.052;0.0703;-0.0127;0.9951;0.0000;0.0000;0.0000;-6.0095;-3.1750;20.2698;34.9000 
1815.052;0.0703;-0.0127;0.9951;0.0000;0.0000;0.0000;-5.9930;-3.1750;20.2698;34.8100 
1815.052;0.0703;-0.0127;0.9951;0.0000;0.0000;0.0000;-5.9766;-3.1805;20.2698;34.8100 
1815.052;0.0703;-0.0127;0.9951;0.0000;0.0000;0.0000;-5.9601;-3.1805;20.2698;34.9000 
1815.072;0.0703;-0.0127;0.9951;0.0000;0.0000;0.0000;-5.9436;-3.1860;20.2753;34.9000 
1815.072;0.0703;-0.0127;0.9951;0.0000;0.0000;0.0000;-5.9271;-3.1860;20.2753;34.9300 
1815.092;0.0703;-0.0127;0.9951;0.0000;0.0000;0.0000;-5.9106;-3.1915;20.2808;34.9300 
1815.092;0.0698;-0.0122;0.9946;0.0000;0.0000;0.0000;-5.8997;-3.1915;20.2863;34.9400 
1815.092;0.0698;-0.0122;0.9946;0.0000;0.0000;0.0000;-5.8832;-3.1970;20.2917;34.9400 
1815.092;0.0698;-0.0122;0.9946;0.0000;0.0000;0.0000;-5.8667;-3.1970;20.2972;34.8400 
1815.092;0.0698;-0.0122;0.9946;0.0000;0.0000;0.0000;-5.8502;-3.1970;20.3027;34.8400 
1815.112;0.0698;-0.0122;0.9946;0.0000;0.0000;0.0000;-5.8337;-3.2025;20.3027;34.8400 
1815.112;0.0698;-0.0122;0.9946;0.0000;0.0000;0.0000;-5.8173;-3.2025;20.3082;34.9100 
1815.112;0.0698;-0.0122;0.9946;0.0000;0.0000;0.0000;-5.8063;-3.2080;20.3137;34.9100 
1815.112;0.0698;-0.0122;0.9946;0.0000;0.0000;0.0000;-5.7898;-3.2080;20.3192;34.8300 
1815.122;0.0698;-0.0122;0.9946;0.0000;0.0000;0.0000;-5.7733;-3.2080;20.3247;34.8300 
1815.122;0.0698;-0.0122;0.9946;0.0000;0.0000;0.0000;-5.7568;-3.2135;20.3247;34.8900 
1815.142;0.0698;-0.0122;0.9946;0.0000;0.0000;0.0000;-5.7404;-3.2135;20.3302;34.8900 
1815.142;0.0698;-0.0122;0.9946;0.0000;0.0000;0.0000;-5.7294;-3.2190;20.3357;34.8800 
1815.142;0.0698;-0.0122;0.9946;0.0000;0.0000;0.0000;-5.7129;-3.2190;20.3412;34.8800 
1815.142;0.0698;-0.0122;0.9946;0.0000;0.0000;0.0000;-5.6964;-3.2190;20.3467;34.8800 
1815.252;0.0698;-0.0122;0.9946;0.0000;0.0000;0.0000;-5.6799;-3.2245;20.3522;34.8800 
1815.252;0.0698;-0.0122;0.9946;0.0000;0.0000;0.0000;-5.6689;-3.2245;20.3577;34.9400 
1815.252;0.0698;-0.0127;0.9946;0.0000;0.0000;0.0000;-5.6525;-3.2300;20.3632;34.9400 
1815.252;0.0698;-0.0127;0.9946;0.0000;0.0000;0.0000;-5.6360;-3.2300;20.3687;34.9300 
1815.272;0.0698;-0.0127;0.9946;0.0000;0.0000;0.0000;-5.6250;-3.2300;20.3741;34.9300 
1815.272;0.0698;-0.0127;0.9946;0.0000;0.0000;0.0000;-5.6085;-3.2355;20.3796;34.8600 
1815.272;0.0698;-0.0127;0.9946;0.0000;0.0000;0.0000;-5.5920;-3.2355;20.3851;34.8600 
1815.272;0.0698;-0.0127;0.9946;0.0000;0.0000;0.0000;-5.5811;-3.2355;20.3906;34.8600 
1815.272;0.0698;-0.0127;0.9946;0.0000;0.0000;0.0000;-5.5646;-3.2410;20.4016;34.8800 
1815.272;0.0698;-0.0127;0.9946;0.0000;0.0000;0.0000;-5.5481;-3.2410;20.4071;34.8800 
1815.272;0.0698;-0.0127;0.9946;0.0000;0.0000;0.0000;-5.5371;-3.2465;20.4126;34.8500 
1815.272;0.0698;-0.0127;0.9946;0.0000;0.0000;0.0000;-5.5206;-3.2465;20.4181;34.8500 
1815.272;0.0698;-0.0127;0.9946;0.0000;0.0000;0.0000;-5.5042;-3.2465;20.4291;34.8100 
1815.272;0.0698;-0.0127;0.9946;0.0000;0.0000;0.0000;-5.4932;-3.2520;20.4346;34.8100 
1815.272;0.0698;-0.0127;0.9946;0.0000;0.0000;0.0000;-5.4767;-3.2520;20.4401;34.8700 
1815.272;0.0698;-0.0127;0.9946;0.0000;0.0000;0.0000;-5.4657;-3.2520;20.4456;34.8700 
1815.272;0.0698;-0.0127;0.9946;0.0000;0.0000;0.0000;-5.4492;-3.2574;20.4456;34.8600 
1815.272;0.0698;-0.0127;0.9946;0.0000;0.0000;0.0000;-5.4327;-3.2574;20.4456;34.8600 
1815.272;0.0703;-0.0132;0.9946;0.0000;0.0000;0.0000;-5.4218;-3.2629;20.4510;34.8700 
1815.272;0.0703;-0.0132;0.9946;0.0000;0.0000;0.0000;-5.4053;-3.2629;20.4456;34.8700 
1815.272;0.0703;-0.0132;0.9946;0.0000;0.0000;0.0000;-5.3943;-3.2684;20.4456;34.8700 
1815.272;0.0703;-0.0132;0.9946;0.0000;0.0000;0.0000;-5.3778;-3.2684;20.4456;34.8700 
1815.272;0.0703;-0.0132;0.9946;0.0000;0.0000;0.0000;-5.3668;-3.2684;20.4401;34.8700 
1815.292;0.0703;-0.0132;0.9946;0.0000;0.0000;0.0000;-5.3503;-3.2739;20.4401;34.9100 
1815.292;0.0703;-0.0132;0.9946;0.0000;0.0000;0.0000;-5.3394;-3.2739;20.4401;34.9100 
1815.322;0.0703;-0.0132;0.9946;0.0000;0.0000;0.0000;-5.3229;-3.2794;20.4401;34.9000 
1815.322;0.0703;-0.0137;0.9946;0.0000;0.0000;0.0000;-5.3119;-3.2794;20.4346;34.9000 
1815.332;0.0703;-0.0137;0.9946;0.0000;0.0000;0.0000;-5.2954;-3.2849;20.4346;34.8700 
1815.332;0.0703;-0.0137;0.9946;0.0000;0.0000;0.0000;-5.2844;-3.2849;20.4291;34.8700 
1815.332;0.0703;-0.0137;0.9946;0.0000;0.0000;0.0000;-5.2679;-3.2904;20.4291;34.8800 
1815.332;0.0703;-0.0137;0.9946;0.0000;0.0000;0.0000;-5.2570;-3.2904;20.4291;34.8800 
1815.332;0.0703;-0.0137;0.9946;0.0000;0.0000;0.0000;-5.2405;-3.2904;20.4291;34.8100 
1815.332;0.0703;-0.0137;0.9946;0.0000;0.0000;0.0000;-5.2295;-3.2959;20.4291;34.8100 
1815.342;0.0703;-0.0137;0.9946;0.0000;0.0000;0.0000;-5.2185;-3.2959;20.4236;34.8400 
1815.342;0.0703;-0.0137;0.9951;0.0000;0.0000;0.0000;-5.2020;-3.3014;20.4236;34.8400 
1815.362;0.0703;-0.0137;0.9951;0.0000;0.0000;0.0000;-5.1910;-3.3014;20.4291;34.8800 
1815.362;0.0703;-0.0137;0.9951;0.0000;0.0000;0.0000;-5.1746;-3.3014;20.4291;34.8800 
1815.362;0.0703;-0.0137;0.9951;0.0000;0.0000;0.0000;-5.1636;-3.3069;20.4291;34.8900 
1815.362;0.0703;-0.0137;0.9951;0.0000;0.0000;0.0000;-5.1526;-3.3069;20.4346;34.8900 
1815.362;0.0703;-0.0137;0.9951;0.0000;0.0000;0.0000;-5.1361;-3.3124;20.4346;34.8900 
1815.362;0.0703;-0.0137;0.9951;0.0000;0.0000;0.0000;-5.1251;-3.3124;20.4401;34.8800 
1815.452;0.0703;-0.0137;0.9951;0.0000;0.0000;0.0000;-5.1086;-3.3124;20.4401;34.8800 
1815.452;0.0703;-0.0132;0.9951;0.0000;0.0000;0.0000;-5.0977;-3.3179;20.4401;34.9600 
1815.472;0.0703;-0.0132;0.9951;0.0000;0.0000;0.0000;-5.0867;-3.3179;20.4401;34.9600 
1815.472;0.0703;-0.0132;0.9951;0.0000;0.0000;0.0000;-5.0702;-3.3234;20.4401;34.8500 
1815.472;0.0703;-0.0132;0.9951;0.0000;0.0000;0.0000;-5.0592;-3.3234;20.4401;34.8500 
1815.472;0.0703;-0.0132;0.9951;0.0000;0.0000;0.0000;-5.0482;-3.3234;20.4401;34.8800 
1815.472;0.0703;-0.0132;0.9951;0.0000;0.0000;0.0000;-5.0317;-3.3289;20.4346;34.8800 
1815.472;0.0703;-0.0132;0.9951;0.0000;0.0000;0.0000;-5.0208;-3.3289;20.4346;34.8400 
1815.472;0.0703;-0.0132;0.9951;0.0000;0.0000;0.0000;-5.0098;-3.3344;20.4346;34.8400 
1815.472;0.0698;-0.0132;0.9951;0.0000;0.0000;0.0000;-4.9933;-3.3344;20.4346;34.8500 
1815.472;0.0698;-0.0132;0.9951;0.0000;0.0000;0.0000;-4.9823;-3.3344;20.4346;34.8500 
1815.472;0.0698;-0.0132;0.9951;0.0000;0.0000;0.0000;-4.9713;-3.3398;20.4346;34.8800 
1815.472;0.0698;-0.0132;0.9951;0.0000;0.0000;0.0000;-4.9548;-3.3398;20.4346;34.8800 
1815.472;0.0698;-0.0132;0.9951;0.0000;0.0000;0.0000;-4.9438;-3.3398;20.4346;34.8400 
1815.472;0.0698;-0.0132;0.9951;0.0000;0.0000;0.0000;-4.9329;-3.3453;20.4401;34.8400 
1815.472;0.0698;-0.0132;0.9951;0.0000;0.0000;0.0000;-4.9219;-3.3453;20.4401;34.8400 
1815.472;0.0698;-0.0132;0.9951;0.0000;0.0000;0.0000;-4.9054;-3.3453;20.4401;34.9000 
1815.472;0.0698;-0.0127;0.9951;0.0000;0.0000;0.0000;-4.8944;-3.3508;20.4401;34.9000 
1815.472;0.0698;-0.0127;0.9951;0.0000;0.0000;0.0000;-4.8834;-3.3508;20.4401;34.8800 
1815.482;0.0698;-0.0127;0.9951;0.0000;0.0000;0.0000;-4.8669;-3.3563;20.4401;34.8800 
1815.482;0.0698;-0.0127;0.9951;0.0000;0.0000;0.0000;-4.8560;-3.3563;20.4401;34.9100 
1815.492;0.0698;-0.0127;0.9951;0.0000;0.0000;0.0000;-4.8450;-3.3563;20.4401;34.9100 
1815.492;0.0698;-0.0127;0.9951;0.0000;0.0000;0.0000;-4.8340;-3.3618;20.4401;34.9200 
1815.502;0.0698;-0.0127;0.9951;0.0000;0.0000;0.0000;-4.8175;-3.3618;20.4401;34.9200 
1815.502;0.0698;-0.0127;0.9951;0.0000;0.0000;0.0000;-4.8065;-3.3618;20.4401;34.8400 
1815.512;0.0698;-0.0122;0.9951;0.0000;0.0000;0.0000;-4.7955;-3.3673;20.4401;34.8400 
1815.512;0.0698;-0.0122;0.9951;0.0000;0.0000;0.0000;-4.7845;-3.3673;20.4401;34.8900 
1815.522;0.0698;-0.0122;0.9951;0.0000;0.0000;0.0000;-4.7681;-3.3673;20.4401;34.8900 
1815.522;0.0698;-0.0122;0.9951;0.0000;0.0000;0.0000;-4.7571;-3.3728;20.4401;34.8600 
1815.671;0.0698;-0.0122;0.9951;0.0000;0.0000;0.0000;-4.7461;-3.3728;20.4401;34.8600 
1815.671;0.0698;-0.0122;0.9951;0.0000;0.0000;0.0000;-4.7351;-3.3728;20.4401;34.8600 
1815.691;0.0698;-0.0122;0.9951;0.0000;0.0000;0.0000;-4.7241;-3.3783;20.4401;34.8600 
1815.691;0.0698;-0.0122;0.9951;0.0000;0.0000;0.0000;-4.7076;-3.3783;20.4401;34.8600 
1815.691;0.0698;-0.0127;0.9946;0.0000;0.0000;0.0000;-4.6967;-3.3838;20.4401;34.8200 
1815.691;0.0698;-0.0127;0.9946;0.0000;0.0000;0.0000;-4.6857;-3.3838;20.4456;34.8200 
1815.691;0.0698;-0.0127;0.9946;0.0000;0.0000;0.0000;-4.6747;-3.3838;20.4456;34.9100 
1815.691;0.0698;-0.0127;0.9946;0.0000;0.0000;0.0000;-4.6637;-3.3893;20.4456;34.9100 
1815.691;0.0698;-0.0127;0.9946;0.0000;0.0000;0.0000;-4.6527;-3.3893;20.4456;34.8700 
1815.691;0.0698;-0.0127;0.9946;0.0000;0.0000;0.0000;-4.6362;-3.3893;20.4456;34.8700 
1815.691;0.0698;-0.0127;0.9946;0.0000;0.0000;0.0000;-4.6252;-3.3948;20.4456;34.8200 
1815.691;0.0698;-0.0127;0.9946;0.0000;0.0000;0.0000;-4.6143;-3.3948;20.4510;34.8200 
1815.691;0.0698;-0.0127;0.9941;0.0000;0.0000;0.0000;-4.6033;-3.3948;20.4565;34.9000 
1815.691;0.0698;-0.0127;0.9941;0.0000;0.0000;0.0000;-4.5923;-3.4003;20.4565;34.9000 
1815.691;0.0698;-0.0127;0.9941;0.0000;0.0000;0.0000;-4.5813;-3.4003;20.4620;34.8300 
1815.691;0.0698;-0.0127;0.9941;0.0000;0.0000;0.0000;-4.5703;-3.4003;20.4675;34.8300 
1815.691;0.0698;-0.0127;0.9941;0.0000;0.0000;0.0000;-4.5593;-3.4003;20.4730;34.8800 
1815.691;0.0698;-0.0127;0.9941;0.0000;0.0000;0.0000;-4.5483;-3.4058;20.4785;34.8800 
1815.691;0.0698;-0.0127;0.9941;0.0000;0.0000;0.0000;-4.5319;-3.4058;20.4895;34.8800 
1815.701;0.0698;-0.0127;0.9941;0.0000;0.0000;0.0000;-4.5209;-3.4058;20.4950;34.8700 
1815.701;0.0698;-0.0127;0.9937;0.0000;0.0000;0.0000;-4.5099;-3.4113;20.5060;34.8700 
1815.711;0.0698;-0.0127;0.9937;0.0000;0.0000;0.0000;-4.4989;-3.4113;20.5115;34.9100 
1815.711;0.0698;-0.0127;0.9937;0.0000;0.0000;0.0000;-4.4879;-3.4113;20.5170;34.9100 
1815.721;0.0698;-0.0127;0.9937;0.0000;0.0000;0.0000;-4.4769;-3.4167;20.5170;34.8400 
1815.721;0.0698;-0.0127;0.9937;0.0000;0.0000;0.0000;-4.4659;-3.4167;20.5225;34.8400 
1815.741;0.0698;-0.0127;0.9937;0.0000;0.0000;0.0000;-4.4550;-3.4167;20.5225;34.8700 
1815.741;0.0698;-0.0127;0.9937;0.0000;0.0000;0.0000;-4.4440;-3.4167;20.5280;34.8700 
1815.751;0.0698;-0.0127;0.9937;0.0000;0.0000;0.0000;-4.4330;-3.4222;20.5280;34.8900 
1815.751;0.0698;-0.0132;0.9937;0.0000;0.0000;0.0000;-4.4220;-3.4222;20.5280;34.8900 
1815.781;0.0698;-0.0132;0.9937;0.0000;0.0000;0.0000;-4.4110;-3.4222;20.5280;34.8800 
1815.781;0.0698;-0.0132;0.9937;0.0000;0.0000;0.0000;-4.4000;-3.4277;20.5280;34.8800 
1815.881;0.0698;-0.0132;0.9937;0.0000;0.0000;0.0000;-4.3890;-3.4277;20.5280;34.8700 
1815.881;0.0698;-0.0132;0.9937;0.0000;0.0000;0.0000;-4.3781;-3.4277;20.5280;34.8700 
1815.891;0.0698;-0.0132;0.9937;0.0000;0.0000;0.0000;-4.3671;-3.4332;20.5280;34.8400 
1815.891;0.0698;-0.0132;0.9937;0.0000;0.0000;0.0000;-4.3561;-3.4332;20.5280;34.8400 
1815.891;0.0698;-0.0132;0.9937;0.0000;0.0000;0.0000;-4.3451;-3.4332;20.5225;34.8400 
1815.891;0.0698;-0.0132;0.9937;0.0000;0.0000;0.0000;-4.3341;-3.4387;20.5225;34.8900 
1815.891;0.0698;-0.0132;0.9937;0.0000;0.0000;0.0000;-4.3231;-3.4387;20.5225;34.8900 
1815.891;0.0698;-0.0132;0.9937;0.0000;0.0000;0.0000;-4.3121;-3.4387;20.5225;34.9000 
1815.891;0.0698;-0.0132;0.9937;0.0000;0.0000;0.0000;-4.3011;-3.4442;20.5225;34.9000 
1815.891;0.0698;-0.0132;0.9937;0.0000;0.0000;0.0000;-4.2902;-3.4442;20.5225;34.8900 
1815.891;0.0698;-0.0132;0.9937;0.0000;0.0000;0.0000;-4.2792;-3.4442;20.5225;34.8900 
1815.891;0.0698;-0.0132;0.9937;0.0000;0.0000;0.0000;-4.2682;-3.4497;20.5225;34.8700 
1815.891;0.0698;-0.0132;0.9937;0.0000;0.0000;0.0000;-4.2572;-3.4497;20.5225;34.8700 
1815.891;0.0698;-0.0132;0.9941;0.0000;0.0000;0.0000;-4.2517;-3.4497;20.5225;34.8700 
1815.891;0.0698;-0.0132;0.9941;0.0000;0.0000;0.0000;-4.2407;-3.4552;20.5225;34.8700 
1815.891;0.0698;-0.0132;0.9941;0.0000;0.0000;0.0000;-4.2297;-3.4552;20.5225;34.8900 
1815.891;0.0698;-0.0132;0.9941;0.0000;0.0000;0.0000;-4.2188;-3.4552;20.5170;34.8900 
1815.891;0.0698;-0.0132;0.9941;0.0000;0.0000;0.0000;-4.2078;-3.4607;20.5170;34.8700 
1815.891;0.0698;-0.0132;0.9941;0.0000;0.0000;0.0000;-4.1968;-3.4607;20.5170;34.8700 
1815.911;0.0698;-0.0132;0.9941;0.0000;0.0000;0.0000;-4.1858;-3.4607;20.5115;34.7900 
1815.911;0.0698;-0.0132;0.9941;0.0000;0.0000;0.0000;-4.1748;-3.4662;20.5170;34.7900 
1815.931;0.0703;-0.0137;0.9941;0.0000;0.0000;0.0000;-4.1638;-3.4662;20.5170;34.7900 
1815.931;0.0703;-0.0137;0.9941;0.0000;0.0000;0.0000;-4.1583;-3.4662;20.5115;34.8900 
1815.931;0.0703;-0.0137;0.9941;0.0000;0.0000;0.0000;-4.1473;-3.4662;20.5115;34.8900 
1815.931;0.0703;-0.0137;0.9941;0.0000;0.0000;0.0000;-4.1364;-3.4717;20.5115;34.8600 
1815.941;0.0703;-0.0137;0.9941;0.0000;0.0000;0.0000;-4.1254;-3.4717;20.5115;34.8600 
1815.941;0.0703;-0.0137;0.9941;0.0000;0.0000;0.0000;-4.1144;-3.4717;20.5115;34.9000 
1815.941;0.0703;-0.0137;0.9941;0.0000;0.0000;0.0000;-4.1089;-3.4772;20.5060;34.9000 
1815.941;0.0703;-0.0137;0.9941;0.0000;0.0000;0.0000;-4.0979;-3.4772;20.5060;34.8300 
1815.951;0.0703;-0.0132;0.9941;0.0000;0.0000;0.0000;-4.0869;-3.4772;20.5115;34.8300 
1815.951;0.0703;-0.0132;0.9941;0.0000;0.0000;0.0000;-4.0759;-3.4827;20.5115;34.8400 
1815.961;0.0703;-0.0132;0.9941;0.0000;0.0000;0.0000;-4.0649;-3.4827;20.5115;34.8400 
1815.961;0.0703;-0.0132;0.9941;0.0000;0.0000;0.0000;-4.0540;-3.4827;20.5115;34.8400 
1815.971;0.0703;-0.0132;0.9941;0.0000;0.0000;0.0000;-4.0485;-3.4882;20.5115;34.8400 
1815.971;0.0703;-0.0132;0.9941;0.0000;0.0000;0.0000;-4.0375;-3.4882;20.5170;34.8400 
1815.991;0.0703;-0.0132;0.9941;0.0000;0.0000;0.0000;-4.0265;-3.4882;20.5170;34.8400 
1815.991;0.0703;-0.0132;0.9941;0.0000;0.0000;0.0000;-4.0155;-3.4937;20.5115;34.9300 
1815.991;0.0703;-0.0132;0.9941;0.0000;0.0000;0.0000;-4.0045;-3.4937;20.5115;34.9300 
1815.991;0.0703;-0.0132;0.9941;0.0000;0.0000;0.0000;-3.9990;-3.4937;20.5115;34.9300 
1816.081;0.0703;-0.0132;0.9941;0.0000;0.0000;0.0000;-3.9880;-3.4937;20.5115;34.8800 
1816.081;0.0703;-0.0132;0.9941;0.0000;0.0000;0.0000;-3.9771;-3.4991;20.5115;34.8800 
1816.101;0.0703;-0.0132;0.9941;0.0000;0.0000;0.0000;-3.9661;-3.4991;20.5115;34.8300 
1816.101;0.0703;-0.0132;0.9941;0.0000;0.0000;0.0000;-3.9606;-3.4991;20.5115;34.8300 
1816.101;0.0703;-0.0132;0.9941;0.0000;0.0000;0.0000;-3.9496;-3.5046;20.5115;34.9000 
1816.101;0.0703;-0.0132;0.9941;0.0000;0.0000;0.0000;-3.9386;-3.5046;20.5170;34.9000 
1816.101;0.0703;-0.0132;0.9941;0.0000;0.0000;0.0000;-3.9276;-3.5046;20.5170;34.8600 
1816.101;0.0703;-0.0132;0.9941;0.0000;0.0000;0.0000;-3.9221;-3.5101;20.5170;34.8600 
1816.101;0.0703;-0.0132;0.9941;0.0000;0.0000;0.0000;-3.9111;-3.5101;20.5170;34.8200 
1816.101;0.0703;-0.0132;0.9941;0.0000;0.0000;0.0000;-3.9001;-3.5101;20.5170;34.8200 
1816.131;0.0703;-0.0132;0.9941;0.0000;0.0000;0.0000;-3.8892;-3.5101;20.5170;34.8500 
1816.141;0.0703;-0.0132;0.9941;0.0000;0.0000;0.0000;-3.8837;-3.5156;20.5170;34.8500 
1816.141;0.0703;-0.0132;0.9941;0.0000;0.0000;0.0000;-3.8727;-3.5156;20.5115;34.8600 
1816.161;0.0703;-0.0132;0.9941;0.0000;0.0000;0.0000;-3.8617;-3.5156;20.5115;34.8600 
1816.161;0.0703;-0.0127;0.9941;0.0000;0.0000;0.0000;-3.8562;-3.5211;20.5060;34.8600 
1816.161;0.0703;-0.0127;0.9941;0.0000;0.0000;0.0000;-3.8452;-3.5211;20.5060;34.9100 
1816.161;0.0703;-0.0127;0.9941;0.0000;0.0000;0.0000;-3.8342;-3.5211;20.5060;34.9100 
1816.161;0.0703;-0.0127;0.9941;0.0000;0.0000;0.0000;-3.8287;-3.5211;20.5060;34.8700 
1816.161;0.0703;-0.0127;0.9941;0.0000;0.0000;0.0000;-3.8177;-3.5266;20.5115;34.8700 
1816.161;0.0703;-0.0127;0.9941;0.0000;0.0000;0.0000;-3.8068;-3.5266;20.5115;34.8400 
1816.161;0.0703;-0.0127;0.9941;0.0000;0.0000;0.0000;-3.7958;-3.5266;20.5115;34.8400 
1816.191;0.0703;-0.0127;0.9941;0.0000;0.0000;0.0000;-3.7903;-3.5321;20.5115;34.8500 
1816.191;0.0698;-0.0127;0.9941;0.0000;0.0000;0.0000;-3.7793;-3.5321;20.5115;34.8500 
1816.281;0.0698;-0.0127;0.9941;0.0000;0.0000;0.0000;-3.7683;-3.5321;20.5115;34.8800 
1816.281;0.0698;-0.0127;0.9941;0.0000;0.0000;0.0000;-3.7628;-3.5321;20.5115;34.8800 
1816.301;0.0698;-0.0127;0.9941;0.0000;0.0000;0.0000;-3.7518;-3.5376;20.5115;34.8400 
1816.301;0.0698;-0.0127;0.9941;0.0000;0.0000;0.0000;-3.7408;-3.5376;20.5115;34.8400 
1816.301;0.0698;-0.0127;0.9941;0.0000;0.0000;0.0000;-3.7354;-3.5376;20.5115;34.8000 
1816.301;0.0698;-0.0127;0.9941;0.0000;0.0000;0.0000;-3.7244;-3.5376;20.5115;34.8000 
1816.301;0.0698;-0.0127;0.9941;0.0000;0.0000;0.0000;-3.7189;-3.5431;20.5115;34.8200 
1816.301;0.0698;-0.0132;0.9946;0.0000;0.0000;0.0000;-3.7079;-3.5431;20.5170;34.8200 
1816.301;0.0698;-0.0132;0.9946;0.0000;0.0000;0.0000;-3.6969;-3.5431;20.5170;34.8200 
1816.301;0.0698;-0.0132;0.9946;0.0000;0.0000;0.0000;-3.6914;-3.5431;20.5170;34.9000 
1816.301;0.0698;-0.0132;0.9946;0.0000;0.0000;0.0000;-3.6804;-3.5486;20.5170;34.9000 
1816.301;0.0698;-0.0132;0.9946;0.0000;0.0000;0.0000;-3.6749;-3.5486;20.5225;34.8800 
1816.301;0.0698;-0.0132;0.9946;0.0000;0.0000;0.0000;-3.6639;-3.5486;20.5225;34.8800 
1816.301;0.0698;-0.0132;0.9946;0.0000;0.0000;0.0000;-3.6530;-3.5486;20.5280;34.8600 
1816.301;0.0698;-0.0132;0.9946;0.0000;0.0000;0.0000;-3.6475;-3.5541;20.5334;34.8600 
1816.301;0.0698;-0.0127;0.9946;0.0000;0.0000;0.0000;-3.6365;-3.5541;20.5334;34.8900 
1816.301;0.0698;-0.0127;0.9946;0.0000;0.0000;0.0000;-3.6310;-3.5541;20.5389;34.8900 
1816.301;0.0698;-0.0127;0.9946;0.0000;0.0000;0.0000;-3.6200;-3.5541;20.5444;34.8300 
1816.301;0.0698;-0.0127;0.9946;0.0000;0.0000;0.0000;-3.6090;-3.5596;20.5499;34.8300 
1816.301;0.0698;-0.0127;0.9946;0.0000;0.0000;0.0000;-3.6035;-3.5596;20.5499;34.8500 
1816.301;0.0698;-0.0127;0.9946;0.0000;0.0000;0.0000;-3.5925;-3.5596;20.5499;34.8500 
1816.301;0.0698;-0.0127;0.9946;0.0000;0.0000;0.0000;-3.5870;-3.5596;20.5554;34.8500 
1816.301;0.0698;-0.0127;0.9946;0.0000;0.0000;0.0000;-3.5760;-3.5651;20.5554;34.8500 
1816.321;0.0698;-0.0127;0.9946;0.0000;0.0000;0.0000;-3.5706;-3.5651;20.5499;34.8700 
1816.321;0.0698;-0.0127;0.9946;0.0000;0.0000;0.0000;-3.5596;-3.5651;20.5499;34.8700 
1816.321;0.0698;-0.0127;0.9946;0.0000;0.0000;0.0000;-3.5486;-3.5651;20.5499;34.8700 
1816.321;0.0698;-0.0127;0.9946;0.0000;0.0000;0.0000;-3.5431;-3.5706;20.5499;34.8800 
1816.331;0.0698;-0.0127;0.9946;0.0000;0.0000;0.0000;-3.5321;-3.5706;20.5444;34.8800 
1816.331;0.0698;-0.0127;0.9946;0.0000;0.0000;0.0000;-3.5266;-3.5706;20.5444;34.8900 
1816.331;0.0698;-0.0127;0.9946;0.0000;0.0000;0.0000;-3.5156;-3.5706;20.5444;34.8900 
1816.331;0.0698;-0.0127;0.9946;0.0000;0.0000;0.0000;-3.5101;-3.5760;20.5444;34.9000 
1816.341;0.0698;-0.0127;0.9946;0.0000;0.0000;0.0000;-3.4991;-3.5760;20.5444;34.9000 
1816.341;0.0698;-0.0127;0.9946;0.0000;0.0000;0.0000;-3.4937;-3.5760;20.5444;34.9100 
1816.341;0.0698;-0.0127;0.9946;0.0000;0.0000;0.0000;-3.4827;-3.5760;20.5444;34.9100 
1816.341;0.0698;-0.0127;0.9946;0.0000;0.0000;0.0000;-3.4772;-3.5815;20.5444;34.9100 
1816.371;0.0698;-0.0127;0.9946;0.0000;0.0000;0.0000;-3.4662;-3.5815;20.5444;34.9100 
1816.371;0.0698;-0.0127;0.9946;0.0000;0.0000;0.0000;-3.4607;-3.5815;20.5444;34.8800 
1816.371;0.0698;-0.0127;0.9946;0.0000;0.0000;0.0000;-3.4497;-3.5815;20.5444;34.8800 
1816.371;0.0698;-0.0127;0.9946;0.0000;0.0000;0.0000;-3.4442;-3.5870;20.5444;34.8200 
1816.381;0.0698;-0.0127;0.9946;0.0000;0.0000;0.0000;-3.4332;-3.5870;20.5444;34.8200 
1816.381;0.0698;-0.0127;0.9946;0.0000;0.0000;0.0000;-3.4277;-3.5870;20.5444;34.8300 
1816.391;0.0698;-0.0127;0.9946;0.0000;0.0000;0.0000;-3.4167;-3.5870;20.5444;34.8300 
1816.391;0.0698;-0.0127;0.9946;0.0000;0.0000;0.0000;-3.4113;-3.5870;20.5499;34.8300 
1816.391;0.0698;-0.0127;0.9946;0.0000;0.0000;0.0000;-3.4003;-3.5925;20.5499;34.8500 
1816.391;0.0698;-0.0127;0.9946;0.0000;0.0000;0.0000;-3.3948;-3.5925;20.5554;34.8500 
1816.481;0.0698;-0.0127;0.9946;0.0000;0.0000;0.0000;-3.3838;-3.5925;20.5554;34.8700 
1816.481;0.0698;-0.0127;0.9946;0.0000;0.0000;0.0000;-3.3783;-3.5925;20.5609;34.8700 
1816.481;0.0703;-0.0127;0.9946;0.0000;0.0000;0.0000;-3.3728;-3.5980;20.5664;34.8300 
1816.481;0.0703;-0.0127;0.9946;0.0000;0.0000;0.0000;-3.3618;-3.5980;20.5664;34.8300 
1816.501;0.0703;-0.0127;0.9946;0.0000;0.0000;0.0000;-3.3563;-3.5980;20.5719;34.8700 
1816.501;0.0703;-0.0127;0.9946;0.0000;0.0000;0.0000;-3.3453;-3.5980;20.5774;34.8700 
1816.501;0.0703;-0.0127;0.9946;0.0000;0.0000;0.0000;-3.3398;-3.6035;20.5829;34.8600 
1816.501;0.0703;-0.0127;0.9946;0.0000;0.0000;0.0000;-3.3289;-3.6035;20.5884;34.8600 
1816.501;0.0703;-0.0127;0.9946;0.0000;0.0000;0.0000;-3.3234;-3.6035;20.5884;34.8600 
1816.501;0.0703;-0.0127;0.9946;0.0000;0.0000;0.0000;-3.3179;-3.6035;20.5884;34.8600 
1816.501;0.0703;-0.0127;0.9941;0.0000;0.0000;0.0000;-3.3069;-3.6035;20.5939;34.8700 
1816.501;0.0703;-0.0127;0.9941;0.0000;0.0000;0.0000;-3.3014;-3.6090;20.5939;34.8700 
1816.501;0.0703;-0.0127;0.9941;0.0000;0.0000;0.0000;-3.2904;-3.6090;20.5994;34.8700 
1816.501;0.0703;-0.0127;0.9941;0.0000;0.0000;0.0000;-3.2849;-3.6090;20.5994;34.8900 
1816.501;0.0703;-0.0127;0.9941;0.0000;0.0000;0.0000;-3.2739;-3.6090;20.5994;34.8900 
1816.501;0.0703;-0.0127;0.9941;0.0000;0.0000;0.0000;-3.2684;-3.6145;20.6049;34.9000 
1816.501;0.0703;-0.0127;0.9941;0.0000;0.0000;0.0000;-3.2629;-3.6145;20.6049;34.9000 
1816.501;0.0703;-0.0127;0.9941;0.0000;0.0000;0.0000;-3.2520;-3.6145;20.6104;34.8700 
1816.501;0.0703;-0.0132;0.9946;0.0000;0.0000;0.0000;-3.2465;-3.6145;20.6158;34.8700 
1816.501;0.0703;-0.0132;0.9946;0.0000;0.0000;0.0000;-3.2410;-3.6145;20.6213;34.8800 
1816.501;0.0703;-0.0132;0.9946;0.0000;0.0000;0.0000;-3.2300;-3.6200;20.6213;34.8800 
1816.501;0.0703;-0.0132;0.9946;0.0000;0.0000;0.0000;-3.2245;-3.6200;20.6268;34.8700 
1816.501;0.0703;-0.0132;0.9946;0.0000;0.0000;0.0000;-3.2190;-3.6200;20.6323;34.8700 
1816.501;0.0703;-0.0132;0.9946;0.0000;0.0000;0.0000;-3.2080;-3.6200;20.6323;34.8700 
1816.501;0.0703;-0.0132;0.9946;0.0000;0.0000;0.0000;-3.2025;-3.6255;20.6378;34.8700 
1816.511;0.0703;-0.0132;0.9946;0.0000;0.0000;0.0000;-3.1915;-3.6255;20.6378;34.8600 
1816.511;0.0708;-0.0137;0.9946;0.0000;0.0000;0.0000;-3.1860;-3.6255;20.6378;34.8600 
1816.511;0.0708;-0.0137;0.9946;0.0000;0.0000;0.0000;-3.1805;-3.6255;20.6378;34.8600 
1816.511;0.0708;-0.0137;0.9946;0.0000;0.0000;0.0000;-3.1750;-3.6310;20.6378;34.8600 
1816.521;0.0708;-0.0137;0.9946;0.0000;0.0000;0.0000;-3.1641;-3.6310;20.6378;34.8600 
1816.521;0.0708;-0.0137;0.9946;0.0000;0.0000;0.0000;-3.1586;-3.6310;20.6378;34.8200 
1816.541;0.0708;-0.0137;0.9946;0.0000;0.0000;0.0000;-3.1531;-3.6310;20.6378;34.8200 
1816.541;0.0708;-0.0137;0.9946;0.0000;0.0000;0.0000;-3.1421;-3.6365;20.6378;34.9100 
1816.541;0.0708;-0.0137;0.9946;0.0000;0.0000;0.0000;-3.1366;-3.6365;20.6323;34.9100 
1816.541;0.0708;-0.0137;0.9946;0.0000;0.0000;0.0000;-3.1311;-3.6365;20.6323;34.8200 
1816.571;0.0708;-0.0137;0.9946;0.0000;0.0000;0.0000;-3.1256;-3.6365;20.6268;34.8200 
1816.571;0.0708;-0.0137;0.9946;0.0000;0.0000;0.0000;-3.1146;-3.6420;20.6213;34.8400 
1816.571;0.0708;-0.0137;0.9946;0.0000;0.0000;0.0000;-3.1091;-3.6420;20.6213;34.8400 
1816.691;0.0708;-0.0137;0.9946;0.0000;0.0000;0.0000;-3.1036;-3.6420;20.6158;34.8700 
1816.691;0.0708;-0.0137;0.9946;0.0000;0.0000;0.0000;-3.0927;-3.6420;20.6158;34.8700 
1816.691;0.0708;-0.0137;0.9946;0.0000;0.0000;0.0000;-3.0872;-3.6475;20.6104;34.8400 
1816.691;0.0708;-0.0137;0.9946;0.0000;0.0000;0.0000;-3.0817;-3.6475;20.6104;34.8400 
1816.711;0.0713;-0.0137;0.9946;0.0000;0.0000;0.0000;-3.0762;-3.6475;20.6104;34.8800 
1816.711;0.0713;-0.0137;0.9946;0.0000;0.0000;0.0000;-3.0652;-3.6475;20.6104;34.8800 
1816.711;0.0713;-0.0137;0.9946;0.0000;0.0000;0.0000;-3.0597;-3.6530;20.6049;34.8700 
1816.711;0.0713;-0.0137;0.9946;0.0000;0.0000;0.0000;-3.0542;-3.6530;20.6049;34.8700 
1816.711;0.0713;-0.0137;0.9946;0.0000;0.0000;0.0000;-3.0487;-3.6530;20.6049;34.8700 
1816.711;0.0713;-0.0137;0.9946;0.0000;0.0000;0.0000;-3.0377;-3.6530;20.5994;34.8700 
1816.711;0.0713;-0.0137;0.9946;0.0000;0.0000;0.0000;-3.0322;-3.6584;20.5939;34.8700 
1816.711;0.0713;-0.0137;0.9946;0.0000;0.0000;0.0000;-3.0267;-3.6584;20.5939;34.7800 
1816.711;0.0713;-0.0142;0.9951;0.0000;0.0000;0.0000;-3.0212;-3.6584;20.5939;34.7800 
1816.711;0.0713;-0.0142;0.9951;0.0000;0.0000;0.0000;-3.0157;-3.6584;20.5939;34.8200 
1816.711;0.0713;-0.0142;0.9951;0.0000;0.0000;0.0000;-3.0048;-3.6639;20.5884;34.8200 
1816.711;0.0713;-0.0142;0.9951;0.0000;0.0000;0.0000;-2.9993;-3.6639;20.5884;34.8400 
1816.761;0.0713;-0.0142;0.9951;0.0000;0.0000;0.0000;-2.9938;-3.6639;20.5829;34.8400 
1816.761;0.0713;-0.0142;0.9951;0.0000;0.0000;0.0000;-2.9883;-3.6639;20.5829;34.8800 
1816.781;0.0713;-0.0142;0.9951;0.0000;0.0000;0.0000;-2.9828;-3.6694;20.5829;34.8800 
1816.781;0.0713;-0.0142;0.9951;0.0000;0.0000;0.0000;-2.9718;-3.6694;20.5774;34.8400 
1816.781;0.0713;-0.0137;0.9951;0.0000;0.0000;0.0000;-2.9663;-3.6694;20.5774;34.8400 
1816.781;0.0713;-0.0137;0.9951;0.0000;0.0000;0.0000;-2.9608;-3.6694;20.5774;34.8600 
1816.781;0.0713;-0.0137;0.9951;0.0000;0.0000;0.0000;-2.9553;-3.6749;20.5774;34.8600 
1816.781